,SensorId, TimeStamp (s), AccX (g), AccY (g), AccZ (g), GyroX (deg/s), GyroY (deg/s), GyroZ (deg/s), MagX (uT), MagY (uT), MagZ (uT), EulerX (deg), EulerY (deg), EulerZ (deg), QuatW, QuatX, QuatY, QuatZ, LinAccX (g), LinAccY (g), LinAccZ (g),Class
0,1,0.0,0.0663762,-0.99955457,0.08010567,-0.18647251,0.77140713,-1.01571977,-47.03303146,0.99386144,-99.3276825,0.13791808,-0.25739309,-0.19943962,0.99999523,-0.00119965,0.00224827,0.00173773,-0.0007985,0.0048738,0.00493365,2
1,1,0.01,0.0587487,-1.00186419,0.08225001,-0.3639231,0.52583438,-0.74662012,-47.0914917,1.46156096,-99.3276825,0.13466619,-0.2503438,-0.19339633,0.99999559,-0.00117149,0.00218664,0.00168513,0.00711545,0.00688976,0.00685403,2
2,1,0.02,0.05218454,-1.00400352,0.08167342,0.06743287,0.33961579,-0.61834466,-46.44840622,0.76001167,-99.44460297,0.18635549,-0.43255866,-0.19729945,0.99999017,-0.00161974,0.00377757,0.00171561,0.01310098,0.00595976,0.0084875,2
3,1,0.03,0.04774672,-1.0088383,0.07937107,0.32775599,-0.38709185,-0.69890416,-46.76995087,1.14001751,-99.59075928,0.18939863,-0.42529547,-0.20084894,0.99999022,-0.00164629,0.00371428,0.00174659,0.01550333,0.00259653,0.01283708,2
4,1,0.04,0.05421843,-1.0105722,0.07537547,0.40573287,-0.82046229,-0.85379869,-46.76995087,1.14001751,-99.59075928,0.19298299,-0.41615787,-0.20864867,0.99999034,-0.00167747,0.00363471,0.00181467,0.00929714,-0.00156515,0.0147234,2
5,1,0.05,0.06108562,-1.00797749,0.0655619,0.52606797,-0.45420632,-0.78936481,-45.51300812,0.87693655,-99.94153595,0.19798315,-0.40794057,-0.21293516,0.99999052,-0.0017211,0.00356314,0.00185204,0.00236947,-0.01124771,0.01190906,2
6,1,0.06,0.0701131,-0.99652964,0.06476609,0.53227746,0.43199673,-0.70496887,-46.8284111,1.28617358,-99.79537964,0.20359841,-0.40123928,-0.20846938,0.99999064,-0.00177035,0.00350469,0.001813,-0.0073091,-0.01129681,0.00109087,2
7,1,0.07,0.0709346,-0.99462336,0.07149656,0.37777752,1.29897726,-0.65465665,-47.06226349,1.14001751,-99.97076416,0.1883029,-0.32637322,-0.19251364,0.99999326,-0.00163846,0.00285089,0.00167531,-0.00782165,-0.00445755,-0.00026338,2
8,1,0.08,0.06774391,-0.99813896,0.07979869,-0.01740014,1.3812139,-0.61404246,-47.17918777,0.935399,-99.59075928,0.18904281,-0.32129869,-0.17829788,0.99999356,-0.00164534,0.00280642,0.00155131,-0.00335257,0.00379191,0.00360651,2
9,1,0.09,0.06260822,-1.00202489,0.08638877,-0.39141026,1.25527501,-0.6850245,-47.17918777,0.935399,-99.59075928,0.18597534,-0.31542256,-0.16501796,0.99999386,-0.00161897,0.00275491,0.00143558,0.00216716,0.01010265,0.00759125,2
10,1,0.1,0.05914331,-1.00507486,0.08545013,-0.54812515,0.94073695,-0.76458126,-46.41917419,0.87693655,-98.91844177,0.18114224,-0.30851278,-0.15470138,0.99999422,-0.00157712,0.00269441,0.00134576,0.00594333,0.00904591,0.01031506,2
11,1,0.11,0.05582887,-1.01116264,0.07592038,0.03366223,0.33953306,-0.98135608,-46.62379456,1.57848585,-99.53230286,0.18175577,-0.2989842,-0.15060769,0.99999452,-0.00158268,0.0026112,0.00131015,0.00977531,-0.00090141,0.01544916,2
12,1,0.12,0.06078225,-1.00743783,0.06978188,-0.01857095,0.26950836,-1.08732164,-45.42531204,0.17538731,-99.06459808,0.09221345,-0.29706198,-0.13758449,0.99999565,-0.0008016,0.00259331,0.00119856,0.0046886,-0.00635431,0.01164252,2
13,1,0.13,0.07275641,-1.00016642,0.06966843,0.03012234,0.65233356,-1.05633223,-46.21455765,1.19848001,-99.29844666,0.09297563,-0.28701442,-0.13033143,0.99999595,-0.00080851,0.00250559,0.00113532,-0.00769385,-0.00478162,0.00523211,2
14,1,0.14,0.07992949,-0.9944821,0.07432996,0.27350506,1.15895963,-0.90118462,-46.74071884,1.05232382,-98.42151642,0.0964988,-0.27888587,-0.11832842,0.99999624,-0.00083959,0.0024346,0.00103056,-0.015069,0.00024553,0.0004141,2
15,1,0.15,0.08081082,-0.99494904,0.07657081,0.09428126,1.15683758,-0.86530674,-46.74071884,1.05232382,-98.42151642,0.09821574,-0.27111825,-0.10623901,0.99999648,-0.0008549,0.00236674,0.00092508,-0.0157712,0.00238658,0.00110212,2
16,1,0.16,0.07761987,-0.99735779,0.07931065,-0.06684572,1.15495646,-0.86415374,-47.2084198,1.46156096,-99.23999023,0.09833968,-0.26336133,-0.09406032,0.99999666,-0.00085629,0.00229896,0.00081886,-0.01227132,0.00494448,0.00347379,2
17,1,0.17,0.07193664,-1.00327718,0.08477803,0.05998086,1.06961656,-0.93744308,-46.53609848,1.28617358,-99.79537964,0.21926615,-0.24515361,-0.09435303,0.99999565,-0.00191169,0.00214094,0.00081929,-0.00597796,0.00942582,0.00936357,2
18,1,0.18,0.06202917,-1.00837934,0.08353744,0.01440335,0.56543338,-1.24968624,-47.26688004,1.37386727,-99.21075439,0.21983467,-0.23312567,-0.08778866,0.99999577,-0.00191685,0.00203587,0.00076219,0.00456551,0.00624449,0.01366148,2
19,1,0.19,0.05573757,-1.01248097,0.0777505,0.15177567,-0.30162835,-1.43825793,-46.00993729,1.11078632,-99.35691071,0.22122453,-0.21855468,-0.08979276,0.99999607,-0.00192905,0.00190876,0.0007799,0.01133926,0.00014793,0.01688334,2
20,1,0.2,0.06257525,-1.0083307,0.07365802,-0.13390458,-0.35707664,-1.45542586,-46.00993729,1.11078632,-99.35691071,0.21972036,-0.20377114,-0.09214184,0.9999963,-0.00191599,0.00177978,0.00080068,0.004473,-0.00362572,0.01293362,2
21,1,0.21,0.07129868,-0.99751848,0.07239706,-0.35884684,0.33515844,-1.22071624,-46.56533051,1.34463608,-99.47383881,0.21642235,-0.19185598,-0.08762516,0.99999654,-0.00188736,0.0016757,0.00076151,-0.00476281,-0.00404591,0.00269245,2
22,1,0.22,0.07373063,-0.9942866,0.07518262,0.25546774,1.12390828,-0.79854536,-46.74071884,1.54925454,-99.15229034,0.21044451,-0.1272229,-0.07662952,0.99999744,-0.00183573,0.00111145,0.00066668,-0.006989,-0.00100393,-0.00015264,2
23,1,0.23,0.06841238,-0.99739116,0.0773266,0.20305508,0.9319824,-0.59761709,-46.62379456,1.14001751,-99.06459808,0.2131331,-0.12197538,-0.0670485,0.99999762,-0.00185931,0.00106552,0.00058313,-0.00060612,0.00097174,0.00271772,2
24,1,0.24,0.06455319,-0.99899095,0.08110544,-0.0076969,0.58194298,-0.53968143,-46.88687515,1.25694239,-99.29844666,0.21346708,-0.11703928,-0.06084464,0.99999762,-0.00186231,0.00102235,0.00052907,0.00345738,0.00460809,0.00431398,2
25,1,0.25,0.06233362,-1.00401402,0.07914436,-0.11348265,0.47649667,-0.59464687,-46.88687515,1.25694239,-99.29844666,0.21268488,-0.1114743,-0.05557084,0.99999774,-0.00185555,0.00097369,0.00048314,0.00610397,0.00228908,0.00901415,2
26,1,0.26,0.05932341,-1.00966001,0.07244159,0.04852428,0.53075331,-0.87065578,-46.91610718,1.90002918,-99.38614655,0.21356878,-0.10319878,-0.04966351,0.99999785,-0.00186335,0.00090139,0.00043172,0.00959531,-0.00479747,0.01393569,2
27,1,0.27,0.0596862,-1.01770747,0.07187467,-0.0156567,0.09588642,-1.21480858,-46.53609848,2.10464764,-99.82460785,0.12506093,-0.16823304,-0.04372614,0.99999827,-0.0010908,0.00146852,0.00037998,0.00963417,-0.00558623,0.02192608,2
28,1,0.28,0.0722982,-1.00948191,0.06619978,-0.06190493,-0.35617679,-1.5251323,-47.06226349,1.60771704,-99.26921844,0.12427397,-0.15275979,-0.04608597,0.99999845,-0.00108396,0.00133352,0.00040073,-0.00430656,-0.00946587,0.01420891,2
29,1,0.29,0.0859144,-0.99686342,0.06522998,-0.02961677,-0.11259545,-1.44723773,-46.97456741,-0.02923122,-99.09383392,0.12397575,-0.13824412,-0.04610657,0.99999863,-0.00108141,0.00120684,0.00040105,-0.01850555,-0.00951575,0.00253374,2
30,1,0.3,0.08701032,-0.99239141,0.07596931,0.05509071,0.14881068,-1.17880464,-46.97456741,-0.02923122,-99.09383392,0.12467068,-0.12659933,-0.04378442,0.99999875,-0.00108753,0.0011052,0.00038089,-0.01963519,0.00151998,-0.00106157,2
31,1,0.31,0.07950507,-0.99416822,0.08451823,0.2492207,0.20287861,-0.79772842,-46.94533539,1.63694823,-99.29844666,0.12734158,-0.11879716,-0.04134287,0.99999881,-0.00111089,0.0010371,0.00035963,-0.01182013,0.00987686,0.00080163,2
32,1,0.32,0.06747096,-0.99741203,0.08380927,0.1937374,0.21936943,-0.51992905,-46.59456253,1.05232382,-99.3276825,0.21646693,-0.17933616,-0.05012163,0.9999969,-0.00188834,0.00156583,0.00043444,0.00022523,0.00851058,0.0031397,2
33,1,0.33,0.05388551,-1.00699687,0.08121467,0.09823754,0.60036284,-0.31493038,-46.71148682,0.67231804,-99.56153107,0.21786831,-0.17665415,-0.04398177,0.99999702,-0.00190066,0.00154232,0.00038088,0.0136322,0.00407079,0.01154572,2
34,1,0.34,0.04516263,-1.01417398,0.0795562,0.4599947,0.48328084,-0.70253706,-47.17918777,1.19848001,-100.0876923,0.22279763,-0.17001854,-0.03895798,0.99999696,-0.00194377,0.00148435,0.00033709,0.02291069,0.00182566,0.0179577,2
35,1,0.35,0.05315449,-1.01155281,0.07356799,-0.3234362,0.28328067,-1.03260863,-47.17918777,1.19848001,-100.0876923,0.21981841,-0.15994066,-0.03512808,0.9999972,-0.00191785,0.00139633,0.00030387,0.0148864,-0.00396388,0.01547291,2
36,1,0.36,0.07792255,-0.99907249,0.07040552,-0.78940642,0.22553456,-0.82361549,-47.12072372,1.05232382,-99.76615143,0.2121343,-0.15190332,-0.03170614,0.99999744,-0.00185085,0.00132612,0.00027423,-0.01054821,-0.00610962,0.00455416,2
37,1,0.37,0.09527601,-0.990444,0.07530829,-0.3770273,-0.01330054,-0.38575897,-47.14995575,0.96463019,-99.73691559,0.21431705,0.22434461,-0.03850838,0.99999636,-0.00187092,-0.00195714,0.00033971,-0.0267155,-0.00049734,-0.00246394,2
38,1,0.38,0.10092715,-0.99484462,0.07666714,0.77350372,-0.50403911,-0.10113926,-46.71148682,-2.01695418,-99.61999512,0.22166392,0.22574092,-0.0439828,0.99999613,-0.00193513,-0.00196921,0.00038763,-0.02712824,0.00039036,0.00241092,2
39,1,0.39,0.09655061,-0.99782854,0.075422,0.4922874,-0.95918673,-0.01193292,-46.21455765,1.05232382,-99.70768738,0.22586392,0.22659534,-0.05385787,0.99999601,-0.00197196,-0.00197648,0.00047389,-0.0225485,-0.00117765,0.00498466,2
40,1,0.4,0.08093061,-1.0034976,0.07839055,-0.03997286,-1.29545522,-0.12403622,-46.8284111,1.54925454,-99.73691559,0.22451328,0.22882292,-0.06661844,0.99999595,-0.0019604,-0.00199571,0.00058527,-0.00652767,0.00136174,0.00975017,2
41,1,0.41,0.06728586,-1.0091821,0.08233827,0.52229464,-1.68821216,-0.52328855,-46.8284111,1.54925454,-99.73691559,0.2285015,0.23533449,-0.08337509,0.99999565,-0.00199554,-0.00205222,0.00073168,0.00758233,0.00487206,0.01474024,2
42,1,0.42,0.05765123,-1.01562893,0.07738151,1.17558277,-2.16672707,-0.99557424,-46.71148682,0.76001167,-99.35691071,0.1744519,0.03868815,-0.11169088,0.99999839,-0.00152271,-0.00033613,0.0009752,0.01688187,-0.00041687,0.02012101,2
43,1,0.43,0.062484,-1.00716054,0.06976351,0.51314974,-2.10482335,-1.14396119,-46.47763824,1.1692487,-99.44460297,0.17814127,0.05168862,-0.13211904,0.99999809,-0.00155509,-0.00044927,0.00115366,0.00892751,-0.00666889,0.01147192,2
44,1,0.44,0.07758982,-0.99342483,0.07333349,0.18184797,-1.46589839,-0.97959566,-47.23764801,1.08155513,-99.00613403,0.1789635,0.06256557,-0.14608569,0.99999785,-0.00156244,-0.000544,0.00127569,-0.00687148,-0.00213231,-0.00088127,2
45,1,0.45,0.08284786,-0.99122995,0.07951298,0.27866068,-0.64811182,-0.93299651,-46.21455765,-0.87693655,-99.50306702,0.18132688,0.07235914,-0.15202057,0.99999768,-0.00158321,-0.00062935,0.00132763,-0.01205952,0.00415875,-0.00225001,2
46,1,0.46,0.07740774,-0.99673611,0.08410821,0.05745217,-0.26864532,-0.65790719,-46.21455765,-0.87693655,-99.50306702,0.18173003,0.07912167,-0.15423456,0.99999768,-0.00158682,-0.00068833,0.00134704,-0.0060855,0.00831625,0.00318175,2
47,1,0.47,0.06826082,-0.99906522,0.08554786,-0.37718374,0.02149408,-0.43637481,-46.88687515,-2.01695418,-99.41537476,0.29229382,0.02201172,-0.15596221,0.99999583,-0.002551,-0.00018862,0.00136151,0.00302677,0.00912403,0.00496693,2
48,1,0.48,0.06455232,-1.00499475,0.0863559,-0.21936525,0.37103426,-0.63231379,-46.79918289,1.25694239,-99.3276825,0.29038471,0.02802508,-0.15163064,0.99999589,-0.0025344,-0.00024121,0.00132384,0.00642314,0.00805656,0.01067148,2
49,1,0.49,0.06597836,-1.01343238,0.08357549,0.21179014,0.35888478,-0.86090815,-46.97456741,0.49693072,-99.8830719,0.29280186,0.03633131,-0.14754313,0.99999583,-0.00255558,-0.00031376,0.00128836,0.00570715,0.00464854,0.01896442,2
50,1,0.5,0.0644891,-1.01286244,0.07890803,-0.12445363,0.16404599,-1.12498844,-45.77608871,0.70154923,-100.3800049,0.29173702,0.04741935,-0.14495049,0.99999589,-0.0025464,-0.00041059,0.00126598,0.0073099,3.104e-05,0.0179556,2
51,1,0.51,0.06932206,-1.00321758,0.07057913,-0.33940193,0.05705811,-0.86781293,-45.77608871,0.70154923,-100.3800049,0.28843006,0.05602531,-0.14347537,0.99999601,-0.00251763,-0.00048576,0.00125328,0.00194744,-0.00753551,0.00809331,2
52,1,0.52,0.07485475,-0.99376625,0.07170907,-0.16241491,0.00658096,-0.38665649,-45.74685669,0.90616781,-99.53230286,0.23279731,0.13098685,-0.14443961,0.99999648,-0.00203298,-0.00114051,0.00126279,-0.00381588,-0.00543244,-0.00084293,2
53,1,0.53,0.0774989,-0.99286431,0.07458391,0.64354712,-0.17547196,-0.01889287,-47.0914917,1.34463608,-99.61999512,0.23908719,0.13131297,-0.14662255,0.99999642,-0.00208789,-0.00114325,0.00128191,-0.00554331,-0.00185406,-0.0013489,2
54,1,0.54,0.07439891,-0.99711889,0.07954136,0.46868268,-0.62954128,0.25982779,-47.44226837,1.2277112,-99.18152618,0.24329703,0.12920797,-0.1534123,0.99999624,-0.00212467,-0.00112471,0.00134116,-0.00214994,0.0026802,0.00302738,2
55,1,0.55,0.06880713,-1.00194359,0.08547939,-0.02781682,-1.05245018,0.35185105,-47.23764801,1.43232965,-98.8015213,0.24224377,0.12650801,-0.16412555,0.99999613,-0.00211555,-0.00110096,0.00143459,0.00374623,0.0082478,0.00786758,2
56,1,0.56,0.06591934,-1.00651395,0.08567392,0.11883575,-1.24172556,0.17080398,-47.23764801,1.43232965,-98.8015213,0.24252895,0.12576093,-0.17669271,0.99999607,-0.00211815,-0.0010942,0.00154425,0.00691267,0.00810895,0.0122273,2
57,1,0.57,0.06467191,-1.01158345,0.08113999,0.35837236,-1.58609271,-0.25882,-46.03916931,-0.49693072,-99.85384369,0.26581439,0.02584474,-0.19105875,0.99999595,-0.00232004,-0.00022167,0.00166782,0.00807208,0.00309987,0.01685566,2
58,1,0.58,0.0657044,-1.0111928,0.07275313,-0.28395146,-1.6803081,-0.44769004,-47.23764801,1.2277112,-99.18152618,0.26183268,0.03160584,-0.20722477,0.99999571,-0.00228541,-0.00027168,0.001809,0.00571046,-0.00549403,0.01593061,2
59,1,0.59,0.07564323,-1.00145149,0.07324103,-0.40050656,-0.98665929,-0.38673332,-47.38380432,1.52002335,-99.56153107,0.25716326,0.03622031,-0.2164612,0.99999565,-0.00224476,-0.00031184,0.00188968,-0.00479092,-0.00419899,0.00696716,2
60,1,0.6,0.0796258,-0.99547857,0.07880104,0.28659075,-0.14464991,-0.29182649,-47.06226349,1.54925454,-99.91230774,0.25994056,0.03924091,-0.21787079,0.99999559,-0.00226905,-0.00033813,0.00190205,-0.00908634,0.00177582,0.00170543,2
61,1,0.61,0.07689117,-0.99510628,0.08018789,0.46139476,0.11789704,-0.12782483,-47.06226349,1.54925454,-99.91230774,0.26464343,0.04042821,-0.21692045,0.99999553,-0.00231011,-0.00034843,0.0018938,-0.00634376,0.00310713,0.00124491,2
62,1,0.62,0.0716034,-0.99755901,0.08185621,-0.06255458,0.45925525,-0.05941871,-47.3545723,1.11078632,-99.8830719,0.30018273,0.02059406,-0.21432784,0.99999487,-0.00261992,-0.00017482,0.00187083,-0.00097398,0.00440246,0.00343819,2
63,1,0.63,0.06634568,-0.99988061,0.0794643,-0.56546974,0.78392822,-0.51073438,-47.03303146,1.60771704,-99.70768738,0.29512158,0.02507542,-0.20574269,0.99999505,-0.00257581,-0.0002142,0.001796,0.00420667,0.00144548,0.00520953,2
64,1,0.64,0.06561586,-1.0022068,0.07930668,-0.36854339,0.96032816,-0.90361035,-47.26688004,2.22157264,-99.50306702,0.2921629,0.03333583,-0.19523442,0.99999529,-0.00255009,-0.00028656,0.00170448,0.00521142,0.00118728,0.00746132,2
65,1,0.65,0.06382159,-1.00628042,0.07384449,-0.24109788,0.90991074,-1.16590333,-46.97456741,1.34463608,-99.8830719,0.29045767,0.04425132,-0.18511477,0.99999541,-0.00253534,-0.00038207,0.0016164,0.00743144,-0.0045254,0.01099328,2
66,1,0.66,0.07105322,-1.0077728,0.07185668,-0.4717575,0.76825464,-1.22125149,-47.32534409,1.52002335,-99.15229034,0.28634518,0.05582921,-0.17619787,0.99999565,-0.00249958,-0.00048336,0.00153883,0.00051659,-0.00655598,0.01283853,2
67,1,0.67,0.07822528,-1.00511873,0.0728072,-0.22237542,0.77097315,-0.99816507,-47.32534409,1.52002335,-99.15229034,0.22470754,0.15097332,-0.16725759,0.99999613,-0.00196286,-0.00131462,0.00146218,-0.00626445,-0.00510697,0.01076671,2
68,1,0.68,0.07938119,-1.00321078,0.08123691,-0.08326619,0.91124892,-0.57890868,-47.00379944,1.66617942,-99.47383881,0.22456421,0.15604737,-0.1576941,0.99999624,-0.00196156,-0.00135907,0.0013788,-0.00626034,0.00423988,0.00955871,2
69,1,0.69,0.06871567,-1.00297248,0.08473684,0.16390204,1.0180639,-0.19629741,-46.94533539,1.95849168,-99.73691559,0.22694859,0.15722543,-0.14753284,0.9999963,-0.00198226,-0.0013695,0.00129018,0.00442005,0.00771814,0.00883122,2
70,1,0.7,0.05671304,-1.00102413,0.08319207,0.03597965,1.1206336,0.03331801,-47.17918777,1.34463608,-100.1169205,0.22810711,0.15603389,-0.13643539,0.99999636,-0.00199223,-0.00135928,0.00119333,0.0162398,0.00628757,0.00594344,2
71,1,0.71,0.05671304,-0.99926609,0.07897285,-0.14557692,1.29222929,0.09289226,-47.0914917,1.31540489,-99.29844666,0.2275891,0.15411882,-0.12354956,0.9999966,-0.00198753,-0.00134279,0.00108084,0.01607148,0.00220476,0.00388852,2
72,1,0.72,0.066102,-0.99998933,0.07333798,-0.28666964,1.06457543,0.22398773,-47.0914917,1.31540489,-99.29844666,0.15316795,0.11305512,-0.1124456,0.99999821,-0.00133761,-0.00098528,0.00098259,0.00651267,-0.00312373,0.00485333,2
73,1,0.73,0.07767884,-1.00243962,0.07199372,-0.42241853,0.48959824,0.18660147,-47.12072372,1.72464192,-99.73691559,0.14927822,0.11082458,-0.10742275,0.99999821,-0.0013036,-0.0009659,0.0009387,-0.00542044,-0.00364193,0.00799692,2
74,1,0.74,0.08326989,-1.00470424,0.07562583,-0.05744963,0.02484112,0.01107916,-47.03303146,1.28617358,-99.82460785,0.14873414,0.11069468,-0.1071417,0.99999827,-0.00129885,-0.00096478,0.00093624,-0.01083315,-0.00014361,0.01090328,2
75,1,0.75,0.07837664,-1.00817406,0.07409853,-0.41562852,0.09028211,-0.12218723,-46.33148193,1.63694823,-99.8830719,0.14465785,0.1118447,-0.10585926,0.99999839,-0.00126328,-0.00097486,0.00092503,-0.00570838,-0.00188952,0.01390328,2
76,1,0.76,0.07175441,-0.99846417,0.07396221,-0.7555024,0.0341269,-0.05247864,-46.50687027,1.95849168,-99.79537964,0.13714328,0.11234026,-0.10495161,0.99999839,-0.0011977,-0.00097926,0.00091705,0.0002348,-0.00119019,0.00377051,2
77,1,0.77,0.07312276,-0.99253553,0.06956595,0.23568368,-0.42337868,-0.16329092,-46.50687027,1.95849168,-99.79537964,0.09336603,0.12930506,-0.10680091,0.99999863,-0.00081582,-0.00112764,0.00093293,-0.00147323,-0.00490878,-0.00235141,2
78,1,0.78,0.07555167,-1.00134146,0.06863427,0.64696032,-0.47088316,0.03942475,-46.53609848,1.87079799,-99.94153595,0.09947661,0.12926184,-0.11196453,0.99999851,-0.0008692,-0.00112717,0.00097805,-0.00307407,-0.00597703,0.0065111,2
79,1,0.79,0.07871084,-1.00902593,0.07554317,-0.07594182,-0.02769564,0.23416795,-46.44840622,2.04618526,-99.47383881,0.09868693,0.12694812,-0.11236356,0.99999851,-0.00086229,-0.00110699,0.00098151,-0.00568484,0.00032019,0.01487772,2
80,1,0.8,0.07436517,-1.01031148,0.07529228,-0.15350129,0.38833344,0.35382575,-46.94533539,1.92926037,-99.73691559,0.09741329,0.12313013,-0.10865512,0.99999863,-0.00085111,-0.00107371,0.00094911,-0.00132073,-3.7e-07,0.01583511,2
81,1,0.81,0.07336301,-1.00601768,0.07143769,-0.58362037,0.41806391,0.35817996,-46.76995087,2.04618526,-99.53230286,0.09188145,0.11924715,-0.10435432,0.99999881,-0.00080276,-0.0010399,0.0009115,-0.00070441,-0.00346902,0.01121358,2
82,1,0.82,0.0788945,-1.00093663,0.07017151,-0.73437333,-0.43520826,0.43177462,-46.76995087,2.04618526,-99.53230286,0.04945897,0.23457868,-0.09776792,0.99999756,-0.00043336,-0.00204671,0.00085407,-0.00613215,-0.00408044,0.00645373,2
83,1,0.83,0.08870998,-1.00126994,0.07566978,-0.24250406,-1.14198494,0.52317399,-46.74071884,1.69541073,-99.73691559,0.04617502,0.23019974,-0.10934166,0.9999975,-0.00040487,-0.00200848,0.00095499,-0.01438601,0.0019248,0.00787233,2
84,1,0.84,0.09062499,-0.9978711,0.07408991,-0.02449284,-1.29564559,0.30829716,-46.85764313,1.2277112,-99.8830719,0.04494679,0.22807522,-0.12243848,0.99999738,-0.00039436,-0.00198991,0.00106926,-0.01659633,0.0006251,0.00450964,2
85,1,0.85,0.07676739,-0.99984878,0.06741822,-0.02201038,-1.33005679,-0.05624998,-46.74071884,1.2277112,-99.73691559,0.04376627,0.22961277,-0.13561314,0.99999732,-0.0003843,-0.00200329,0.00118421,-0.0026638,-0.00615865,0.0050272,2
86,1,0.86,0.06953546,-1.00005639,0.0702611,0.17649534,-1.39713967,-0.18130754,-46.27301788,0.90616781,-99.53230286,0.04450209,0.23244642,-0.1495041,0.99999708,-0.000391,-0.00202797,0.00130545,0.0046247,-0.00332558,0.00493508,2
87,1,0.87,0.067226,-1.00270689,0.07639695,0.45602,-0.80298889,-0.2826941,-46.27301788,0.90616781,-99.53230286,0.0971372,0.15405576,-0.16237785,0.99999774,-0.00084958,-0.00134319,0.00141815,0.00684099,0.00233359,0.00785497,2
88,1,0.88,0.06990071,-1.00334454,0.08504031,0.44692034,-0.07325939,-0.30771884,-47.00379944,0.90616781,-99.09383392,0.10156807,0.15718037,-0.16319045,0.99999774,-0.0008883,-0.00137039,0.00142532,0.00324675,0.01019565,0.00929965,2
89,1,0.89,0.07196707,-1.00466144,0.0886389,0.06695494,0.16543487,-0.14038551,-46.41917419,1.31540489,-100.0876923,0.10236113,0.15845856,-0.16148496,0.99999768,-0.00089522,-0.00138155,0.00141045,0.00132895,0.01364405,0.01101497,2
90,1,0.9,0.06822873,-1.00500071,0.08152276,-0.0187294,-0.14836283,-0.11666404,-46.65302658,0.81847411,-99.44460297,0.10205447,0.15973082,-0.16285881,0.99999762,-0.00089257,-0.00139265,0.00142245,0.00506995,0.00652353,0.01057623,2
91,1,0.91,0.06336661,-1.00263619,0.07392424,-0.53348982,-0.5889501,0.07863823,-46.74071884,1.40309846,-99.23999023,0.09631772,0.15938422,-0.16840214,0.99999768,-0.00084257,-0.00138965,0.00147075,0.00972293,-0.0008225,0.00733376,2
92,1,0.92,0.06826007,-0.9970625,0.07248013,-0.39309084,-0.46587202,0.30697176,-46.8284111,1.11078632,-99.53230286,0.07823893,0.14080067,-0.17393993,0.99999791,-0.00068463,-0.00122768,0.00151875,0.00434978,-0.00169071,0.00202456,2
93,1,0.93,0.06971787,-1.00132203,0.07436688,0.39019141,-0.17884526,0.46725753,-46.8284111,1.11078632,-99.53230286,0.08197467,0.13627344,-0.17633682,0.99999791,-0.00071719,-0.00118811,0.00153968,0.00291867,3.716e-05,0.00649986,2
94,1,0.94,0.06616185,-1.00521445,0.07608361,0.31613544,0.11588961,0.23646775,-47.00379944,0.96463019,-99.59075928,0.08521476,0.13383251,-0.17557921,0.99999797,-0.00074543,-0.00116677,0.00153308,0.00668786,0.00140052,0.01024899,2
95,1,0.95,0.06142096,-1.00540721,0.07108686,0.33325642,0.29007187,-0.01673951,-47.06226349,0.64308679,-98.97690582,0.0887469,0.1337844,-0.17291391,0.99999797,-0.00077622,-0.00116632,0.00150986,0.01138673,-0.00364458,0.00974794,2
96,1,0.96,0.0616342,-1.00435984,0.07431608,0.94733196,-0.06755075,-0.15561977,-46.53609848,1.05232382,-99.15229034,0.0981541,0.135387,-0.17412928,0.99999785,-0.00085835,-0.00118017,0.00152057,0.01114127,-0.00047751,0.008955,2
97,1,0.97,0.06698263,-1.00313294,0.07444961,0.43308589,-0.52546358,-0.01285262,-46.59456253,1.52002335,-99.15229034,0.10762182,0.11068816,-0.18123789,0.99999779,-0.0009407,-0.00096445,0.0015825,0.00562823,-0.00040519,0.00811719,2
98,1,0.98,0.07606991,-0.99782628,0.07799316,0.16412351,-0.51125729,0.02430571,-46.59456253,1.52002335,-99.15229034,0.1088974,0.11082748,-0.18645819,0.99999779,-0.00095188,-0.0009656,0.00162807,-0.00411261,0.00342606,0.00372763,2
99,1,0.99,0.07625163,-1.00138795,0.08021723,0.2480787,-0.09328321,0.07361672,-46.65302658,1.14001751,-99.73691559,0.11129464,0.11016231,-0.18761595,0.99999779,-0.0009728,-0.00095976,0.00163819,-0.00404261,0.00534003,0.00744517,2
100,1,1.0,0.07017318,-1.00432789,0.0763576,-0.07653773,0.09407767,0.06566177,-46.56533051,1.1692487,-99.59075928,0.11058602,0.10943501,-0.18667647,0.99999779,-0.0009666,-0.00095343,0.00162998,0.00219169,0.00126929,0.00966658,2
101,1,1.04,0.0589608,-1.00126374,0.07410477,-0.80545253,1.38937461,-0.59046751,-46.24378967,1.40309846,-99.94153595,0.13287182,-0.08832071,-0.15986079,0.99999809,-0.00115845,0.00077236,0.00139415,0.00966604,-0.00118461,0.00567261,2
102,1,1.05,0.07458173,-0.99491292,0.07954313,-0.36166406,1.56807816,-0.31049705,-46.50687027,0.17538731,-100.0,0.1303234,-0.08640275,-0.14377664,0.99999833,-0.00113634,0.00075543,0.00125383,-0.00627157,0.00478836,0.00083766,2
103,1,1.06,0.08840729,-0.99875361,0.08252484,0.51134133,1.73431313,0.08684816,-46.33148193,1.75387311,-100.0,0.13660987,-0.08856834,-0.12694752,0.99999839,-0.00119129,0.00077422,0.0011069,-0.01979897,0.00743082,0.00583982,2
104,1,1.07,0.08631006,-1.00172532,0.08420084,0.51590985,1.38686156,0.05675411,-46.12686157,1.11078632,-99.50306702,0.21295907,0.05959814,-0.12471039,0.99999762,-0.00185898,-0.00051807,0.00108927,-0.01687112,0.00845528,0.0087726,2
105,1,1.08,0.07005177,-1.00515401,0.07983155,0.12463003,1.17376697,0.06919368,-46.12686157,1.11078632,-99.50306702,0.21502942,0.05801269,-0.11317435,0.99999768,-0.00187698,-0.0005044,0.00098858,0.00149483,0.00286851,0.01073538,2
106,1,1.09,0.06008409,-1.00633633,0.07515993,0.00545038,0.75547057,-0.08365187,-46.88687515,1.46156096,-99.82460785,0.21562462,0.05826987,-0.10559888,0.99999768,-0.00188215,-0.00050677,0.00092248,0.01149132,-0.00189021,0.01087795,2
107,1,1.1,0.06090434,-1.00546312,0.07075017,-0.0412153,0.32074878,-0.35873884,-46.50687027,1.63694823,-99.26921844,0.21545887,0.06160166,-0.1021093,0.99999774,-0.00188071,-0.0005359,0.00089208,0.01062382,-0.00623355,0.00974675,2
108,1,1.11,0.07233176,-0.99727815,0.07095022,-0.53521025,-0.20620891,-0.47813591,-46.47763824,1.49079216,-99.23999023,0.20999135,0.06652532,-0.10341973,0.99999779,-0.00183304,-0.00057889,0.00090357,-0.00126482,-0.00537714,0.00241513,2
109,1,1.12,0.08612855,-0.99532574,0.07731812,-0.23151568,-0.27240464,-0.20609744,-46.68225479,1.90002918,-99.76615143,0.23382784,0.25057459,-0.11469491,0.99999511,-0.00204271,-0.00218463,0.00100536,-0.01427654,0.00107687,0.00189919,2
110,1,1.13,0.08588441,-1.00216031,0.08276787,0.19512969,-0.19824627,0.17395315,-46.68225479,1.90002918,-99.76615143,0.23562621,0.24899366,-0.11693711,0.99999505,-0.00205844,-0.00217077,0.00102493,-0.01115583,0.00565854,0.00908492,2
111,1,1.14,0.07266537,-1.005373,0.0837514,0.53457075,-0.22921343,0.37782103,-46.68225479,1.66617942,-100.0584641,0.24076134,0.24540208,-0.11987819,0.99999499,-0.00210327,-0.00213933,0.00105063,0.00220827,0.00634084,0.01143011,2
112,1,1.15,0.0579578,-1.00342715,0.07691903,0.62802094,-0.48867312,0.26379302,-46.74071884,1.46156096,-99.70768738,0.24664691,0.24315014,-0.12537903,0.99999487,-0.00215471,-0.00211952,0.0010987,0.01665812,-0.00043726,0.00797304,2
113,1,1.16,0.056925,-1.00081241,0.07449566,0.27169022,-0.59702981,0.19332276,-46.97456741,1.43232965,-99.53230286,0.24889523,0.24168083,-0.13165268,0.99999487,-0.00217444,-0.00210656,0.00115346,0.01746539,-0.00272325,0.00512411,2
114,1,1.17,0.06351873,-1.00254178,0.0755633,0.44985664,-0.31651852,-0.28207877,-46.56533051,0.23384975,-99.41537476,0.22984043,0.17058945,-0.13280347,0.99999624,-0.00200746,-0.00148634,0.00116191,0.01071496,-0.00174185,0.00738098,2
115,1,1.18,0.07263497,-1.00060344,0.07190498,-0.3597796,0.1434924,-0.62230754,-46.76995087,0.3215434,-99.91230774,0.22638875,0.17668311,-0.13064931,0.99999624,-0.00197737,-0.00153959,0.00114317,0.00058101,-0.00493989,0.00581888,2
116,1,1.19,0.07971527,-1.00023198,0.07197394,-0.17120841,0.84082222,-0.70191646,-46.76995087,0.3215434,-99.91230774,0.22532903,0.18303812,-0.12163197,0.9999963,-0.00196806,-0.00159522,0.00106458,-0.00639313,-0.00480224,0.00594848,2
117,1,1.2,0.08196393,-1.00058424,0.07294964,-0.19519322,1.22263551,-0.4801318,-46.27301788,0.90616781,-99.85384369,0.22428951,0.18688792,-0.108968,0.99999636,-0.00195884,-0.00162904,0.00095411,-0.00852355,-0.00384256,0.00652687,2
118,1,1.21,0.08314892,-1.00257754,0.07665575,-0.1591493,1.08381116,-0.20873079,-46.50687027,0.78924292,-99.79537964,0.22351819,0.18814117,-0.09791724,0.99999642,-0.00195196,-0.00164017,0.00085769,-0.00950619,-0.00027257,0.00886135,2
119,1,1.22,0.07898508,-1.00843859,0.08234333,0.11362065,0.60015672,0.13470146,-46.85764313,0.58462435,-100.0876923,0.26248184,0.19889131,-0.09151332,0.99999559,-0.00229197,-0.00173382,0.00080258,-0.00487628,0.004799,0.01481507,2
120,1,1.23,0.06929059,-1.01093948,0.07774529,-0.0064313,0.18171667,0.1375421,-46.85764313,1.31540489,-99.85384369,0.2625528,0.19737995,-0.08980484,0.99999559,-0.00229255,-0.00172066,0.00078764,0.00507858,-0.00047587,0.01629636,2
121,1,1.24,0.06418627,-1.00666869,0.07505331,-0.5011642,-0.31054217,0.07132,-46.85764313,1.31540489,-99.85384369,0.25732478,0.19690643,-0.09259907,0.99999571,-0.00224696,-0.00171651,0.00081193,0.00984451,-0.00279292,0.01149553,2
122,1,1.25,0.06740853,-0.99830037,0.06785072,-0.41088155,-0.36160117,0.05146163,-46.79918289,-0.17538731,-99.03536987,0.25295746,0.19667214,-0.09594963,0.99999577,-0.0022089,-0.00171443,0.0008411,0.00600457,-0.00927828,0.00287234,2
123,1,1.26,0.07458038,-0.99653476,0.06878867,0.21632692,-0.42382723,0.09631412,-46.97456741,1.75387311,-99.41537476,0.25480267,0.1960362,-0.10038751,0.99999577,-0.00222506,-0.00170878,0.00087985,-0.00127548,-0.00820382,0.00168384,2
124,1,1.27,0.08071887,-0.99808973,0.07570741,0.3781687,-0.61334068,0.39949584,-46.18532562,1.34463608,-99.41537476,0.25828466,0.27945137,-0.11225931,0.9999941,-0.00225634,-0.00243645,0.00098514,-0.00691407,-0.00147715,0.00416245,2
125,1,1.28,0.08308942,-0.9980281,0.07932695,0.70311999,-0.939928,0.66180938,-46.65302658,0.67231804,-99.21075439,0.26454291,0.27357772,-0.12260795,0.99999398,-0.00231112,-0.00238494,0.00107546,-0.00821535,0.00206184,0.00453334,2
126,1,1.29,0.07655461,-1.00553262,0.08073599,1.12193882,-1.54331648,0.77485842,-46.65302658,0.67231804,-99.21075439,0.2745553,0.2670505,-0.1393372,0.99999374,-0.00239877,-0.00232753,0.00122152,-0.00128254,0.00275493,0.01164609,2
127,1,1.3,0.06844088,-1.00796402,0.08281568,0.58667511,-1.6537472,0.6883707,-46.53609848,1.2277112,-99.61999512,0.27914229,0.26146948,-0.15672648,0.99999356,-0.00243908,-0.00227841,0.00137325,0.0068905,0.00453954,0.0136499,2
128,1,1.31,0.0614519,-1.00708556,0.08134004,0.2600244,-1.24038875,0.53304678,-47.12072372,1.46156096,-99.85384369,0.28079259,0.25711843,-0.16965699,0.99999344,-0.00245369,-0.00224014,0.00148603,0.01370712,0.00307906,0.01218113,2
129,1,1.32,0.0621824,-1.00082695,0.07909781,-0.2803961,-0.82936293,0.18897705,-46.97456741,1.95849168,-99.29844666,0.2650156,0.15680131,-0.17370038,0.99999523,-0.00231476,-0.00136484,0.00151898,0.01205817,0.00138695,0.0058406,2
130,1,1.33,0.06768227,-0.99825567,0.070581,-0.10486092,-0.42741376,-0.09166299,-46.18532562,0.84770536,-100.0,0.26367646,0.15804677,-0.17780857,0.99999517,-0.00230314,-0.00137564,0.00155484,0.00505555,-0.00672258,0.00304322,2
131,1,1.34,0.07178416,-0.99830681,0.06662834,-0.1602242,-0.25421122,-0.18867165,-46.18532562,0.84770536,-100.0,0.2619068,0.16012463,-0.18007985,0.99999523,-0.00228776,-0.00139375,0.00157468,0.00098267,-0.01063895,0.00309418,2
132,1,1.35,0.07412452,-0.99818736,0.07221903,-0.12863648,0.05889551,-0.14281498,-47.03303146,1.49079216,-99.64922333,0.26067621,0.16150245,-0.17929637,0.99999523,-0.00227703,-0.00140581,0.00156786,-0.00130317,-0.00502527,0.00354345,2
133,1,1.36,0.07181569,-0.99933189,0.08161991,0.42227244,0.41290623,-0.20318463,-46.94533539,2.01695418,-100.1169205,0.26519662,0.16320972,-0.17532714,0.99999511,-0.00231645,-0.00142073,0.00153331,0.00115505,0.00422612,0.00520255,2
134,1,1.37,0.07014353,-1.00364053,0.08267269,0.64084214,0.10264573,-0.1643426,-47.26688004,1.49079216,-99.94153595,0.31056091,0.12581985,-0.17258231,0.99999464,-0.0027118,-0.0010939,0.00150903,0.00298496,0.00468598,0.00944994,2
135,1,1.38,0.06965674,-1.00777888,0.08634057,0.26394746,0.13292342,-0.07388048,-47.03303146,1.52002335,-99.50306702,0.31329158,0.12645322,-0.17138997,0.99999458,-0.00273563,-0.00109942,0.00149867,0.00328759,0.00745825,0.01380099,2
136,1,1.39,0.06524986,-1.01089966,0.08591185,0.54512632,0.55324447,-0.077874,-46.76995087,1.52002335,-99.47383881,0.31913409,0.12680121,-0.16620784,0.99999458,-0.00278657,-0.0011025,0.00145351,0.00790599,0.00673433,0.01656766,2
137,1,1.4,0.05585987,-1.00971735,0.07915437,-0.03040743,0.84209508,-0.27047983,-46.76995087,1.69541073,-99.47383881,0.31944808,0.12883665,-0.15759832,0.99999458,-0.00278925,-0.00112047,0.00137843,0.01717695,1.607e-05,0.01424673,2
138,1,1.41,0.05880874,-1.00110936,0.07225703,-0.74795794,0.99019068,-0.36338824,-47.0914917,1.95849168,-99.8830719,0.31272876,0.13168375,-0.14694464,0.99999487,-0.00273054,-0.00114565,0.00128546,0.01365198,-0.0061551,0.00538832,2
139,1,1.42,0.06862515,-0.99340528,0.06828952,-0.7860074,1.1112746,-0.23756428,-47.12072372,1.75387311,-99.50306702,0.21196087,0.14138314,-0.13395467,0.99999684,-0.00185115,-0.00123163,0.00117125,0.00337338,-0.00901625,-0.00188171,2
140,1,1.43,0.0787139,-0.99427015,0.07265989,-0.21670429,1.29147315,0.00691237,-47.00379944,1.40309846,-99.56153107,0.21074159,0.14032994,-0.12096532,0.99999708,-0.00184036,-0.00122266,0.00105787,-0.00650183,-0.00342339,-6.17e-06,2
141,1,1.44,0.07862174,-0.99999219,0.07579187,0.64485997,1.02330816,0.23270515,-47.17918777,1.40309846,-99.70768738,0.21789336,0.13723028,-0.11141469,0.99999708,-0.00190264,-0.00119571,0.00097455,-0.0060392,-0.00080319,0.00590762,2
142,1,1.45,0.07163195,-1.00302064,0.075231,0.1325964,0.42644036,0.33575711,-47.17918777,1.40309846,-99.70768738,0.21951184,0.13355602,-0.10751719,0.99999708,-0.00191669,-0.0011637,0.00094049,0.00107655,-0.00165176,0.0083924,2
143,1,1.46,0.066892,-1.00371861,0.08174681,-0.02287381,0.00764618,0.26966006,-46.68225479,0.43846828,-99.97076416,0.21928364,0.13086171,-0.10763188,0.99999714,-0.00191468,-0.00114018,0.00094145,0.00583741,0.00480484,0.00922807,2
144,1,1.47,0.06215155,-1.00608051,0.08702646,0.43086442,-0.4735989,0.26584199,-46.06840134,0.02923122,-99.35691071,0.30429605,0.01837546,-0.11520343,0.99999607,-0.00265564,-0.00015769,0.00100576,0.01023176,0.00950489,0.01163074,2
145,1,1.52,0.07269606,-1.00012088,0.0741251,0.12808737,0.73908114,0.43376538,-46.94533539,1.69541073,-98.94767761,0.26790875,0.00792198,-0.11900472,0.99999672,-0.00233801,-6.67e-05,0.00103867,-0.00239946,-0.00390002,0.00550483,2
146,1,1.53,0.07138948,-1.00016701,0.07496709,-0.06944917,0.80632335,0.3858383,-47.23764801,1.92926037,-99.41537476,0.2677488,0.00345219,-0.11123728,0.99999678,-0.00233657,-2.786e-05,0.0009708,-0.00114437,-0.00255107,0.00551802,2
147,1,1.54,0.06974782,-1.0051707,0.07901137,0.03884106,0.80772114,0.22938353,-47.12072372,1.14001751,-99.67845917,0.26869044,0.00053944,-0.1034047,0.99999684,-0.00234477,-2.59e-06,0.00090238,0.00079857,0.00111043,0.01067485,2
148,1,1.55,0.06376048,-1.0107249,0.08105689,0.45490316,0.56949288,0.00989865,-47.12072372,1.14001751,-99.67845917,0.27362517,2.6e-06,-0.09806647,0.99999684,-0.00238783,2.02e-06,0.00085579,0.00713868,0.00268187,0.01593163,2
149,1,1.56,0.05965764,-1.0107094,0.07467162,-0.7906971,0.01639937,-0.12205603,-46.8284111,0.73078048,-99.79537964,0.265737,0.00120315,-0.097256,0.99999702,-0.002319,-8.53e-06,0.00084874,0.01121631,-0.00364784,0.01516699,2
150,1,1.57,0.07096457,-0.99956506,0.07912676,-1.30870652,-0.11133943,-0.05362543,-46.94533539,-0.35077462,-99.23999023,0.30499691,0.06648934,-0.10289527,0.99999595,-0.00266212,-0.00057784,0.00089947,-0.00051993,0.00159466,0.00519134,2
151,1,1.58,0.07935315,-0.99337167,0.0827402,-0.72168654,0.12126806,0.10615017,-46.76995087,1.1692487,-99.47383881,0.29788807,0.06533547,-0.10127082,0.99999613,-0.00260006,-0.00056786,0.00088523,-0.00845883,0.00513736,-0.00012062,2
152,1,1.59,0.08090215,-0.99623007,0.08155508,0.31477857,0.11566602,0.47864616,-45.83454895,-0.08769365,-99.91230774,0.30109796,0.0604763,-0.10070974,0.99999607,-0.00262803,-0.00052544,0.00088024,-0.00987189,0.00376117,0.0027453,2
153,1,1.6,0.07376032,-0.99859494,0.07806234,0.44197744,-0.07407381,0.57450259,-45.83454895,-0.08769365,-99.91230774,0.30540663,0.0548054,-0.10219962,0.99999595,-0.0026656,-0.00047589,0.00089313,-0.0027,1.889e-05,0.0043474,2
154,1,1.61,0.06285059,-1.00047648,0.07480119,0.17382783,-0.02491322,0.38806057,-47.0914917,1.25694239,-99.53230286,0.30710527,0.05095715,-0.10286907,0.99999595,-0.00268039,-0.00044228,0.00089889,0.00821929,-0.00341495,0.00522194,2
155,1,1.62,0.05449306,-1.00481546,0.07379092,0.33429945,0.13355184,0.15048712,-47.03303146,1.54925454,-99.97076416,0.26010561,-0.15324828,-0.08933276,0.9999963,-0.0022688,0.00133911,0.00077654,0.01592384,-0.00456079,0.00888246,2
156,1,1.63,0.05260743,-1.0104779,0.06985188,0.5672102,0.20593813,-0.03890226,-46.38994217,1.2277112,-99.59075928,0.26590836,-0.15301622,-0.08764952,0.99999613,-0.00231946,0.00133709,0.00076178,0.01552155,-0.00833664,0.01409878,2
157,1,1.64,0.06245359,-1.00821269,0.07214337,-0.02311178,0.14688872,-0.00199709,-46.85764313,1.98772287,-99.76615143,0.26576883,-0.1531105,-0.08617079,0.99999619,-0.00231826,0.00133788,0.00074888,0.00555678,-0.00592555,0.01269832,2
158,1,1.65,0.07591714,-1.00076711,0.07619255,-0.90369797,0.27537858,0.28617388,-46.74071884,1.63694823,-99.09383392,0.25692552,-0.15617917,-0.08302309,0.9999963,-0.00224111,0.00136454,0.00072145,-0.00840332,-0.00125232,0.00652288,2
159,1,1.66,0.08631066,-0.99800402,0.08161611,-0.81695622,0.31078714,0.70197594,-46.74071884,1.63694823,-99.09383392,0.24894246,-0.16342178,-0.07989886,0.99999642,-0.00217143,0.00142763,0.00069415,-0.01903326,0.0045306,0.00489152,2
160,1,1.67,0.08150846,-1.00154579,0.07893624,0.02663018,-0.02724004,1.09832227,-46.33148193,1.87079799,-99.15229034,0.24638414,-0.03887655,-0.081889,0.99999744,-0.00214986,0.0003408,0.00071388,-0.01359012,0.00164973,0.00788524,2
161,1,1.68,0.07476229,-1.00166869,0.07690191,0.21344805,-0.66804457,1.1598618,-46.56533051,1.7831043,-98.83074951,0.24799883,-0.0499244,-0.08957354,0.99999726,-0.00216385,0.00043736,0.00078073,-0.00528302,-0.00037509,0.0073863,2
162,1,1.69,0.06935298,-1.00338578,0.07676115,0.23570369,-0.94568163,1.01110935,-46.56533051,1.72464192,-99.09383392,0.24966599,-0.05927542,-0.09992278,0.99999708,-0.00217829,0.00051917,0.00087086,5.499e-05,-0.00066549,0.00870727,2
163,1,1.7,0.06464191,-1.00621998,0.07215158,0.78899819,-0.62609851,0.60349107,-47.32534409,1.69541073,-99.21075439,0.25707689,-0.06480925,-0.10716455,0.99999696,-0.00224289,0.00056766,0.00093392,0.00480515,-0.00555388,0.01086489,2
164,1,1.71,0.06190632,-1.00847387,0.06949969,0.77505344,-0.73011649,0.13272211,-47.32534409,1.69541073,-99.21075439,0.2642979,-0.06556465,-0.11507124,0.99999666,-0.00230586,0.00057447,0.00100286,0.00763432,-0.00851449,0.01272501,2
165,1,1.72,0.0681065,-1.00243497,0.06779549,0.00600001,-0.73897624,-0.00015687,-47.12072372,1.40309846,-99.82460785,0.1955155,-0.04448441,-0.11840148,0.99999791,-0.00170579,0.00038996,0.00103258,0.00111218,-0.00951219,0.00702502,2
166,1,1.73,0.07576588,-0.99786037,0.07641487,0.07697098,-0.70342529,0.03520716,-46.65302658,0.67231804,-99.67845917,0.19580105,-0.04430071,-0.12547994,0.99999791,-0.00170826,0.00038847,0.00109436,-0.00652363,0.0003243,0.00362857,2
167,1,1.8,0.06810729,-1.00044727,0.07155237,-0.6574958,1.06103265,-0.69014037,-46.47763824,-0.70154923,-99.53230286,0.24211693,-0.21857229,-0.10940553,0.99999559,-0.00211104,0.00190941,0.00095071,-0.0018074,-0.00556058,0.00532601,2
168,1,1.81,0.07777047,-1.0024066,0.07717849,-0.12394687,1.15377069,-0.25832328,-46.47763824,-0.70154923,-99.53230286,0.24164279,-0.21688372,-0.0976454,0.99999565,-0.00210711,0.00189446,0.00084812,-0.01122265,-5.524e-05,0.00835694,2
169,1,1.82,0.07479283,-1.00361955,0.08342248,-0.46176445,0.80198067,0.1118814,-46.74071884,-1.25694239,-99.21075439,0.32202888,-0.13367876,-0.10371951,0.99999499,-0.00280917,0.00116911,0.00090184,-0.00777445,0.00576196,0.00980882,2
170,1,1.83,0.06908117,-0.99907798,0.08455116,-0.28102839,0.54319876,0.39507744,-46.53609848,1.08155513,-99.26921844,0.31956828,-0.13804378,-0.09842942,0.99999505,-0.00278772,0.00120705,0.00085559,-0.00133571,0.00617416,0.00497549,2
171,1,1.84,0.06525185,-1.00070143,0.08260028,0.16826035,0.33978391,0.55718195,-45.65916443,0.23384975,-99.59075928,0.32144976,-0.14386298,-0.09560067,0.99999499,-0.00280412,0.00125778,0.00083075,0.0024915,0.00410104,0.00618235,2
172,1,1.85,0.05911265,-1.00367796,0.07907329,0.2448737,0.08029083,0.2529991,-47.12072372,1.11078632,-99.67845917,0.32392886,-0.14644794,-0.09516969,0.99999487,-0.00282574,0.00128034,0.0008269,0.00873377,0.00033097,0.0084603,2
173,1,1.86,0.05084578,-1.00852716,0.07390308,0.57319516,-0.17610039,-0.2432604,-47.12072372,1.11078632,-99.67845917,0.32954782,-0.14388081,-0.09713149,0.9999947,-0.00287477,0.00125803,0.00084402,0.01730446,-0.00525677,0.01233374,2
174,1,1.87,0.05139202,-1.00972617,0.06885639,0.18023117,-0.19796023,-0.36217102,-46.56533051,1.11078632,-99.41537476,0.20837726,-0.29589552,-0.07813369,0.99999481,-0.00181667,0.00258341,0.00067715,0.01620533,-0.00991156,0.01319961,2
175,1,1.88,0.06388315,-1.00211442,0.07211515,-0.45414731,0.31574991,-0.14821079,-46.68225479,1.1692487,-99.59075928,0.20404662,-0.29466125,-0.07456007,0.99999493,-0.00177896,0.00257255,0.00064608,0.00123056,-0.00445099,0.00673396,2
176,1,1.89,0.07531055,-0.99885136,0.0840987,-0.11032271,1.27514613,0.23038392,-46.68225479,1.57848585,-99.50306702,0.20375048,-0.29792699,-0.06197871,0.99999493,-0.00177664,0.00260086,0.00053624,-0.01036279,0.00777072,0.0051531,2
177,1,1.9,0.07312359,-0.99612242,0.08743135,-0.10992065,1.1533407,0.43348703,-46.97456741,0.64308679,-99.35691071,0.20336246,-0.30312872,-0.0507589,0.99999493,-0.00177349,0.00264608,0.00043826,-0.00843507,0.01129274,0.00252738,2
178,1,1.91,0.06874717,-0.99759275,0.08369146,-0.41163379,0.85424864,0.63237017,-46.59456253,1.05232382,-99.38614655,0.19977479,-0.31008595,-0.04245257,0.99999481,-0.00174235,0.00270665,0.00036575,-0.0040984,0.00749517,0.00341442,2
179,1,1.92,0.06446157,-1.00066066,0.08020224,-0.24341166,0.33499262,0.54282999,-46.59456253,1.05232382,-99.38614655,0.22692928,-0.32928899,-0.04619354,0.99999386,-0.00197916,0.00287438,0.00039742,0.00019849,0.00372327,0.0059159,2
180,1,1.93,0.06288035,-1.00428641,0.07720292,0.4089821,-0.07402871,0.07310347,-46.85764313,0.84770536,-99.91230774,0.23096509,-0.32995972,-0.0472703,0.99999374,-0.00201435,0.00288026,0.0004067,0.00179362,5.601e-05,0.00919844,2
181,1,1.94,0.05932291,-1.01013803,0.06819072,0.57521504,-0.28022882,-0.36818829,-47.17918777,0.67231804,-99.82460785,0.23656432,-0.32606924,-0.05018123,0.99999374,-0.00206316,0.00284638,0.00043204,0.00574263,-0.00946077,0.01411939,2
182,1,1.95,0.06500636,-1.00557327,0.0684337,-0.48046488,-0.18800089,-0.70276034,-47.29611206,0.70154923,-99.47383881,0.23167291,-0.31892222,-0.05117312,0.99999404,-0.00202047,0.00278401,0.00044094,-0.00013721,-0.0088696,0.00999133,2
183,1,1.96,0.07664676,-0.99884766,0.07507119,-0.00328477,0.26928619,-0.62039131,-47.12072372,0.76001167,-99.79537964,0.23185317,-0.31294045,-0.04801876,0.99999422,-0.00202215,0.00273176,0.00041351,-0.0120663,-0.00171116,0.00459212,2
184,1,1.97,0.07622162,-0.99995929,0.08087394,0.54651296,0.53606272,-0.28609532,-47.12072372,0.76001167,-99.79537964,0.32227036,-0.20405212,-0.05805281,0.9999944,-0.00281143,0.00178211,0.0005016,-0.01100429,0.00355106,0.00608841,2
185,1,1.98,0.07129845,-1.00361681,0.08489148,0.25853637,0.46282583,0.1458568,-47.00379944,1.40309846,-99.70768738,0.32513449,-0.20586756,-0.05374721,0.99999428,-0.00283648,0.00179786,0.00046393,-0.00442728,0.0061067,0.00967456,2
186,1,1.99,0.05993326,-1.0054034,0.08499448,-0.37268224,0.7159034,0.3848173,-47.32534409,1.7831043,-99.53230286,0.32187372,-0.21026529,-0.04666734,0.99999434,-0.00280812,0.00183605,0.00040209,0.00697172,0.00609294,0.01066682,2
187,1,2.0,0.05467651,-1.00305355,0.08175924,-0.27084604,1.20372355,0.28087318,-46.59456253,-1.40309846,-99.56153107,0.31995028,-0.21400692,-0.03472819,0.9999944,-0.00279152,0.0018684,0.00029784,0.01196179,0.00310154,0.0077274,2
188,1,2.01,0.05592158,-1.00443077,0.07641019,0.07381991,0.89505386,0.18043084,-46.59456253,-0.52616191,-99.50306702,0.32127222,-0.21650556,-0.02601802,0.99999434,-0.00280319,0.00188999,0.00022175,0.01073935,-0.00235157,0.00879727,2
189,1,2.03,0.08503456,-0.99410027,0.07372282,-0.48607081,-0.08446335,0.06221053,-46.53609848,1.72464192,-99.85384369,0.21938027,-0.1358671,-0.0181544,0.99999756,-0.00191426,0.00118596,0.00015616,-0.0176422,-0.00252001,0.00034325,2
190,1,2.04,0.08892275,-1.00157106,0.07715196,0.34673074,-0.78714108,0.01278819,-46.94533539,0.4676995,-99.61999512,0.22230244,-0.13539253,-0.02623624,0.99999744,-0.00193968,0.00118196,0.00022666,-0.02097874,0.0003381,0.00829595,2
191,1,2.05,0.07737487,-1.00523579,0.07777319,0.24610944,-1.36181211,0.09623497,-46.91610718,1.2277112,-99.56153107,0.22383738,-0.13530953,-0.04002807,0.99999744,-0.00195293,0.00118148,0.000347,-0.00919824,0.0006552,0.01118148,2
192,1,2.06,0.06303131,-1.00777304,0.07509287,0.51437134,-1.30649304,0.02703881,-46.71148682,1.72464192,-99.47383881,0.22808859,-0.13457866,-0.05340434,0.99999726,-0.0019899,0.00117535,0.0004637,0.00528141,-0.00225315,0.01251107,2
193,1,2.07,0.05294178,-1.01152062,0.0734765,0.29051733,-0.68371958,0.22459269,-46.71148682,1.72464192,-99.47383881,0.19938557,-0.31681287,-0.06398442,0.99999452,-0.00173842,0.00276568,0.00055356,0.01479771,-0.00407736,0.01542147,2
194,1,2.08,0.05191058,-1.0048691,0.07856775,-0.45449087,0.17641154,0.22723714,-46.91610718,1.52002335,-99.79537964,0.19494471,-0.31921428,-0.06208341,0.99999464,-0.0016997,0.00278658,0.00053704,0.0129867,0.00194166,0.00910853,2
195,1,2.09,0.05452491,-0.99931127,0.07617291,-0.26720157,0.94317085,0.21938115,-46.47763824,1.63694823,-100.1461563,0.19287646,-0.32211924,-0.05268243,0.99999464,-0.00168186,0.00281179,0.00045501,0.00993448,1.036e-05,0.0035876,2
196,1,2.1,0.06573793,-0.99741405,0.07322114,0.01603364,1.06785727,0.51588362,-46.53609848,1.37386727,-99.76615143,0.19369361,-0.32807496,-0.04246227,0.99999446,-0.00168923,0.00286361,0.00036571,-0.0014768,-0.00278817,0.0022691,2
197,1,2.11,0.07670734,-0.9993847,0.07424537,0.11031,0.49514994,0.96118891,-46.50687027,1.49079216,-99.61999512,0.19505337,-0.33803728,-0.03834572,0.99999422,-0.00170117,0.00295049,0.00032961,-0.01242473,-0.00193913,0.00507038,2
198,1,2.18,0.06120915,-1.00529766,0.08069727,-0.27973977,-0.75961387,-0.08523922,-46.76995087,1.34463608,-99.67845917,0.28654382,-0.15834939,-0.10778239,0.99999553,-0.00249926,0.00138421,0.00093712,0.00653842,0.0024413,0.01033304,2
199,1,2.19,0.05619634,-1.00039327,0.08034895,0.33957615,-0.23119317,0.03326102,-46.91610718,0.99386144,-99.85384369,0.28978062,-0.15849964,-0.11034344,0.99999541,-0.00252747,0.0013856,0.00095943,0.01120067,0.00244971,0.0050784,2
200,1,2.2,0.05482916,-0.99823505,0.07773564,0.60531151,-0.00218822,0.02235803,-46.94533539,0.58462435,-99.35691071,0.29581457,-0.15871879,-0.11080573,0.99999523,-0.00258012,0.00138757,0.00096338,0.01239852,-9.835e-05,0.00264695,2
201,1,2.21,0.05479828,-1.00044203,0.07779521,0.49974933,-0.12500797,-0.03324717,-46.8284111,-0.11692487,-99.26921844,0.30070925,-0.15828854,-0.1123704,0.99999517,-0.00262282,0.0013839,0.00097699,0.01258718,-0.00029909,0.00484548,2
202,1,2.22,0.05674204,-1.00612652,0.08060384,0.02935264,0.25177193,-0.0158412,-46.76995087,1.34463608,-99.47383881,0.33139709,-0.28687778,-0.1068188,0.99999231,-0.00288964,0.00250616,0.00092492,0.01049737,0.00192926,0.01084321,2
203,1,2.23,0.05440224,-1.00648153,0.08155786,0.54235417,0.81394076,-0.17206813,-46.76995087,1.34463608,-99.47383881,0.33735919,-0.28579921,-0.09896722,0.99999219,-0.00294184,0.0024966,0.0008563,0.01118703,0.00239315,0.01111144,2
204,1,2.24,0.05525341,-1.00462759,0.08067866,0.41051185,1.281479,-0.06740508,-46.53609848,1.25694239,-99.50306702,0.34228626,-0.28613141,-0.08645643,0.99999213,-0.00298511,0.00249921,0.00074701,0.01021304,0.0015481,0.00926311,2
205,1,2.25,0.05762366,-1.00473154,0.08147656,-0.25375488,1.395311,-0.0062912,-45.2206955,0.76001167,-100.1461563,0.34067032,-0.28716522,-0.07240053,0.99999231,-0.00297131,0.00250785,0.00062436,0.00785025,0.00231804,0.00958989,2
206,1,2.26,0.06692372,-0.99924666,0.0853571,-0.89779347,1.2834028,0.15016823,-46.94533539,0.99386144,-99.91230774,0.33252922,-0.28967449,-0.05912733,0.99999255,-0.00290055,0.00252937,0.00050864,-0.00182581,0.00669992,0.00506249,2
207,1,2.27,0.07467279,-0.99604374,0.08116456,-0.44368297,0.69775778,0.31549609,-47.50072861,0.96463019,-99.67845917,0.3370308,-0.16512214,-0.05851868,0.99999452,-0.0029404,0.00144246,0.00050643,-0.0093001,0.0028077,0.00211048,2
208,1,2.28,0.0789571,-0.99361783,0.07215492,-0.1640933,-0.20261815,0.38409683,-47.50072861,0.96463019,-99.67845917,0.33524874,-0.16879182,-0.06071936,0.99999452,-0.00292481,0.00147453,0.00052556,-0.01217165,-0.00605947,-0.00066312,2
209,1,2.29,0.07646421,-0.99797124,0.07044454,0.34784764,-1.10034084,0.52022594,-47.32534409,0.70154923,-99.3276825,0.33795649,-0.17311543,-0.07231249,0.9999944,-0.00294826,0.00151257,0.00062659,-0.00946208,-0.00810711,0.00337067,2
210,1,2.3,0.0679859,-1.00230169,0.07780076,0.53407741,-1.56714022,0.29408932,-46.91610718,1.63694823,-99.06459808,0.34221697,-0.17481618,-0.08849543,0.99999416,-0.00298522,0.00152786,0.00076771,-0.00072008,-0.00114852,0.00762111,2
211,1,2.31,0.06111719,-1.00795603,0.07850684,0.60470581,-1.44459474,0.19426464,-46.76995087,1.63694823,-99.53230286,0.34728268,-0.17561217,-0.10343905,0.9999938,-0.00302922,0.00153523,0.00089803,0.00651233,-0.00094171,0.0128192,2
212,1,2.32,0.05446117,-1.01415026,0.08032794,0.81489164,-0.99018723,0.00177999,-46.62379456,1.19848001,-99.56153107,0.3613517,-0.35425833,-0.10546127,0.99998981,-0.00315052,0.00309437,0.00091057,0.01281372,0.0002869,0.01865398,2
213,1,2.33,0.04856662,-1.01186407,0.08075692,0.77465904,-0.55607933,-0.18955086,-46.62379456,1.19848001,-99.56153107,0.36872861,-0.35192636,-0.11138051,0.99998969,-0.00321476,0.00307424,0.00096209,0.01621702,0.00065121,0.01601125,2
214,1,2.34,0.05227536,-1.00412762,0.07821619,-0.37950206,0.07334275,-0.14038166,-46.30224991,-0.73078048,-99.85384369,0.36499542,-0.35058767,-0.11027106,0.99998987,-0.00318222,0.0030625,0.00095254,0.01200164,-0.00133391,0.00838862,2
215,1,2.35,0.06342996,-0.99482387,0.08279614,-0.99737841,0.7263127,0.0093748,-46.8284111,0.40923706,-99.29844666,0.35550737,-0.35125744,-0.10235855,0.99999011,-0.00309963,0.00306805,0.00088373,0.00025403,0.00405793,0.00024127,2
216,1,2.36,0.06972012,-0.99514288,0.08379136,-0.53699106,1.04429185,0.20784299,-46.38994217,0.87693655,-99.79537964,0.35080719,-0.35415328,-0.09176353,0.99999028,-0.00305887,0.003093,0.00079132,-0.00603165,0.00514339,0.00106924,2
217,1,2.37,0.06908101,-0.9980213,0.08014012,-0.2853733,0.87327683,0.4245317,-45.92224503,1.75387311,-100.2338486,0.35454282,-0.31997597,-0.08583879,0.99999112,-0.00309186,0.00279462,0.00074044,-0.00511577,0.00131397,0.00362333,2
218,1,2.38,0.06446111,-1.00066614,0.0752002,-0.35004655,0.38609821,0.28604111,-45.92224503,1.75387311,-100.2338486,0.35127145,-0.32313433,-0.08197513,0.99999112,-0.00306339,0.00282205,0.00070672,9.243e-05,-0.00383145,0.00557186,2
219,1,2.39,0.05944616,-1.00423384,0.07224613,0.12084243,0.06163006,0.062973,-45.893013,1.02309263,-100.0,0.35253724,-0.32380775,-0.0815018,0.99999106,-0.00307444,0.00282793,0.00070254,0.005296,-0.00703,0.00855763,2
220,1,2.4,0.05549546,-1.00813115,0.0777806,0.39042369,0.08234622,-0.16318882,-46.76995087,1.90002918,-100.1461563,0.35649309,-0.32224545,-0.08082169,0.999991,-0.00310899,0.0028143,0.00069655,0.00954989,-0.00183772,0.01256084,2
221,1,2.41,0.0546445,-1.00826931,0.0768652,0.41216502,-0.17796552,-0.25940591,-46.47763824,1.90002918,-99.82460785,0.36050084,-0.31951699,-0.08267622,0.99999088,-0.00314393,0.00279056,0.00071271,0.01045371,-0.00285209,0.01257269,2
222,1,2.42,0.0630025,-1.0020386,0.07832666,-0.57222444,-0.29387704,-0.06591547,-46.97456741,1.19848001,-100.0584641,0.34708732,-0.29474401,-0.08561939,0.99999189,-0.00302697,0.00257437,0.00073937,0.00182164,-0.00086115,0.00706155,2
223,1,2.43,0.07142104,-0.99815947,0.08290787,-0.36318716,0.03846964,0.22147834,-47.00379944,1.31540489,-99.56153107,0.34347531,-0.29698288,-0.08515747,0.99999195,-0.00299545,0.00259388,0.00073536,-0.00652783,0.00417946,0.00411864,2
224,1,2.44,0.06923264,-0.99920756,0.07963901,-0.00743794,0.14673042,0.39573944,-47.00379944,1.31540489,-99.56153107,0.34347889,-0.30104601,-0.08400086,0.99999177,-0.00299548,0.0026293,0.00072517,-0.0043495,0.00085787,0.00477205,2
225,1,2.45,0.06534218,-1.0018183,0.0763097,-0.17016743,0.2316363,0.48658356,-47.2084198,0.99386144,-99.79537964,0.34189683,-0.30607912,-0.08196349,0.99999183,-0.00298169,0.00267316,0.00070729,-0.00038638,-0.00263615,0.00685723,2
226,1,2.46,0.06360939,-1.00410891,0.07405611,-0.27901605,0.38683844,0.38931945,-46.94533539,0.935399,-99.73691559,0.33935285,-0.31026343,-0.07822612,0.99999171,-0.00295955,0.00270956,0.00067463,0.00141056,-0.00501106,0.00885235,2
227,1,2.47,0.06078326,-1.00482202,0.07442679,-0.08308102,0.63271606,0.01630102,-46.76995087,1.37386727,-100.0584641,0.30038923,-0.37521514,-0.06716788,0.99999106,-0.00261945,0.00327589,0.00057756,0.00396203,-0.00449707,0.00939231,2
228,1,2.48,0.05674134,-1.00726676,0.07567667,-0.20344481,0.5101983,-0.59272671,-45.98070526,0.6138556,-99.59075928,0.29870534,-0.36970294,-0.06149168,0.99999124,-0.00260495,0.00322765,0.0005282,0.007374,-0.00291319,0.01163499,2
229,1,2.49,0.0584424,-1.00903106,0.07323453,0.42963728,0.18778697,-1.00723088,-45.98070526,0.6138556,-99.59075928,0.30315921,-0.35980481,-0.05914049,0.99999154,-0.00264393,0.00314124,0.00050779,0.00594337,-0.00550731,0.01333117,2
230,1,2.5,0.06275805,-1.00605881,0.07338788,-0.1613929,0.14603107,-0.88319361,-46.8284111,1.08155513,-99.38614655,0.30168512,-0.35111374,-0.05689227,0.99999171,-0.00263116,0.00306534,0.00048841,0.00159988,-0.00516947,0.01068545,2
231,1,2.51,0.07178596,-0.99632543,0.08138949,-0.47447893,0.71557546,-0.61772466,-47.03303146,1.60771704,-99.15229034,0.29743719,-0.34551367,-0.04896639,0.99999201,-0.00259432,0.00301627,0.00041948,-0.00792517,0.00359171,0.00220994,2
232,1,2.52,0.07370082,-0.99433631,0.08160856,-0.48258066,1.20172644,-0.27114028,-47.06226349,0.70154923,-99.3276825,0.33178011,-0.24358949,-0.04080388,0.99999356,-0.00289456,0.00212674,0.00034992,-0.00947944,0.00385328,0.0003785,2
233,1,2.53,0.07354799,-0.99755126,0.07971312,-0.73256719,1.04221642,-0.03292625,-46.74071884,1.49079216,-99.41537476,0.32515529,-0.24408145,-0.02990037,0.99999368,-0.00283695,0.00213074,0.00025488,-0.00779964,0.00132226,0.00342465,2
234,1,2.57,0.06287745,-1.01491261,0.07159581,-0.04206663,-1.03464723,-0.3393195,-47.03303146,1.69541073,-99.94153595,0.20775785,-0.24932048,-0.02000182,0.99999601,-0.00181264,0.00217604,0.0001706,0.00401488,-0.00754266,0.01936281,2
235,1,2.58,0.07555231,-1.00018752,0.07277344,-0.82972467,-1.20052326,0.00652853,-46.85764313,1.2277112,-99.82460785,0.19871509,-0.24847153,-0.03137006,0.99999613,-0.00173352,0.00216879,0.00026999,-0.00973082,-0.00359029,0.00567449,2
236,1,2.59,0.08464053,-0.99237746,0.08038432,0.49075881,-1.02907932,0.41796947,-46.85764313,1.2277112,-99.82460785,0.20290855,-0.25185451,-0.04226568,0.99999601,-0.00176989,0.00219849,0.00036494,-0.01934041,0.00459273,-0.00091015,2
237,1,2.6,0.08239038,-0.99864429,0.07949682,0.74541748,-1.39110589,0.52382976,-46.71148682,1.57848585,-99.97076416,0.20942488,-0.25601575,-0.05702296,0.99999577,-0.00182646,0.00223506,0.00049353,-0.01673102,0.00312662,0.00510429,2
238,1,2.61,0.07287838,-1.0004096,0.07487974,-0.39491907,-1.87365949,0.61854559,-46.8284111,2.04618526,-100.1169205,0.20423727,-0.26075625,-0.07585415,0.99999565,-0.00178079,0.0022767,0.00065789,-0.00722231,-0.00158896,0.00586265,2
239,1,2.62,0.0633365,-1.001315,0.07370028,-0.78921682,-1.73904705,0.38430381,-46.24378967,2.07541656,-99.79537964,0.17884158,-0.3200148,-0.09625152,0.99999458,-0.00155833,0.00279396,0.00083559,0.00204287,-0.0026133,0.00601316,2
240,1,2.63,0.05421907,-1.00711548,0.07390865,0.21383667,-1.50092971,-0.21999933,-45.68839645,0.99386144,-100.0,0.18003178,-0.31668282,-0.11116344,0.99999458,-0.00156838,0.00276509,0.00096574,0.01081718,-0.00255923,0.01116586,2
241,1,2.64,0.05184811,-1.01179814,0.0770749,0.09372624,-1.65822613,-0.79570985,-46.59456253,0.99386144,-99.53230286,0.17994346,-0.30749193,-0.12712464,0.99999458,-0.00156732,0.00268511,0.00110515,0.0136448,0.0002327,0.01588816,2
242,1,2.65,0.06032721,-1.00816596,0.07998558,0.12670057,-1.36230111,-0.95807421,-46.59456253,2.22157264,-99.53230286,0.18036945,-0.29690802,-0.14003785,0.9999947,-0.00157085,0.00259293,0.00121798,0.00513548,0.00340675,0.01307594,2
243,1,2.68,0.06142338,-0.99942106,0.08281255,0.84202313,-0.22514921,-0.17790754,-46.53609848,0.64308679,-99.56153107,0.27240974,-0.2698043,-0.15679927,0.99999356,-0.00237399,0.00235773,0.00136273,0.00397953,0.00530023,0.00466018,2
244,1,2.69,0.05242811,-1.0020473,0.08194478,0.52075273,-0.35062087,-0.07628929,-46.36071396,1.95849168,-99.76615143,0.27739066,-0.26876855,-0.16058902,0.99999332,-0.00241739,0.00234883,0.00139572,0.013148,0.00413078,0.006583,2
245,1,2.7,0.04613771,-1.003667,0.08322605,-0.07185686,-0.14889404,-0.22007047,-46.36071396,1.95849168,-99.76615143,0.27659175,-0.26645824,-0.16184859,0.99999344,-0.00241042,0.00232868,0.00140677,0.0195718,0.0052778,0.00784837,2
246,1,2.71,0.04379684,-1.00873971,0.08414361,0.66573668,-0.24419746,-0.6270262,-46.8284111,1.69541073,-100.1461563,0.28310314,-0.26001492,-0.16425975,0.99999344,-0.00246728,0.00227259,0.00142782,0.02234847,0.00575581,0.01279827,2
247,1,2.72,0.04534539,-1.0118289,0.07858986,0.05896542,-0.3032164,-0.84946972,-46.74071884,1.7831043,-100.1461563,0.27846256,-0.45845371,-0.16852054,0.99998796,-0.00242414,0.00400431,0.00146088,0.02022609,-4.129e-05,0.01558268,2
248,1,2.73,0.05342944,-1.00470531,0.07269612,-0.14080687,-0.06224039,-0.89099902,-46.71148682,-1.08155513,-99.21075439,0.27705112,-0.44952309,-0.16835237,0.99998838,-0.00241194,0.00392635,0.00145965,0.0090866,-0.00532352,0.00864778,2
249,1,2.74,0.06579901,-0.99571627,0.07248759,-0.73724812,0.22590609,-0.54722452,-46.47763824,1.60771704,-100.2338486,0.26986179,-0.4442459,-0.16516803,0.99998873,-0.00234938,0.00388015,0.00143222,-0.00375893,-0.00479034,0.00055086,2
250,1,2.75,0.06993296,-0.99241644,0.07849552,-0.36541429,0.49076822,-0.40193054,-46.47763824,1.60771704,-100.2338486,0.26655066,-0.44061837,-0.15972607,0.99998897,-0.00232071,0.00384834,0.00138491,-0.00801406,0.00153802,-0.0020095,2
251,1,2.76,0.0647658,-0.99881262,0.07965385,-0.00543134,0.39080402,-0.51212215,-46.62379456,0.64308679,-100.0876923,0.26676926,-0.43581319,-0.15543824,0.99998921,-0.00232282,0.00380632,0.00134759,-0.0023357,0.00224481,0.00407703,2
252,1,2.77,0.05874752,-1.00700629,0.08196502,0.08639431,0.28776851,-0.68958586,-46.85764313,1.72464192,-99.73691559,0.3113994,-0.51137704,-0.16252124,0.99998546,-0.00271111,0.00446642,0.00140612,0.00399736,0.00375053,0.01197989,2
253,1,2.78,0.04844552,-1.01153719,0.08488381,0.13648188,0.70564389,-0.98598778,-46.47763824,1.08155513,-99.8830719,0.31322348,-0.5020957,-0.15483186,0.99998581,-0.00272744,0.00438527,0.00133917,0.01366794,0.00574127,0.01599097,2
254,1,2.79,0.04440263,-1.01359904,0.07461941,-0.19844241,0.47620219,-1.40703392,-46.8284111,1.49079216,-99.35691071,0.31161168,-0.48843893,-0.14886145,0.99998641,-0.00271376,0.00426593,0.00128745,0.01800352,-0.00466258,0.01701494,2
255,1,2.8,0.05336845,-1.00456536,0.06990883,-0.7687149,0.29584393,-1.478526,-46.8284111,1.49079216,-99.35691071,0.30418083,-0.47393337,-0.14422853,0.99998713,-0.00264924,0.00413916,0.00124764,0.00866175,-0.00859954,0.00830853,2
256,1,2.81,0.07090466,-0.99397534,0.07477961,-0.54277354,0.64564514,-1.05223274,-46.8284111,2.22157264,-99.85384369,0.29921538,-0.46394747,-0.13661304,0.99998778,-0.00260629,0.00405179,0.00118159,-0.0093359,-0.00286016,-0.00065365,2
257,1,2.82,0.07859362,-0.99218625,0.08148018,-0.28530407,1.34336388,-0.64799726,-46.71148682,1.60771704,-99.79537964,0.35258248,-0.28875312,-0.14068057,0.99999136,-0.00307375,0.00252361,0.00121991,-0.01623446,0.00375681,-0.00141636,2
258,1,2.83,0.07190775,-0.99698216,0.0857158,-0.39388514,1.34191835,-0.43964714,-46.30224991,1.34463608,-99.70768738,0.3495222,-0.2854307,-0.12671106,0.99999166,-0.00304739,0.00249421,0.00109816,-0.0069167,0.0069529,0.00318466,2
259,1,2.84,0.06066309,-1.00298059,0.08488064,-0.61022675,1.42621315,-0.36571711,-46.38994217,2.10464764,-99.59075928,0.34437618,-0.28290865,-0.11181435,0.99999195,-0.00300282,0.00247176,0.00096834,0.00476089,0.00576137,0.00830682,2
260,1,2.85,0.05394628,-1.0089159,0.08588662,0.05098477,1.62526131,-0.58829957,-46.38994217,2.10464764,-99.59075928,0.34596333,-0.27832103,-0.09522825,0.99999219,-0.00301707,0.0024313,0.00082368,0.01194674,0.00636342,0.01381558,2
261,1,2.86,0.05072355,-1.01527059,0.08296219,0.66282451,1.44137228,-0.72078204,-46.44840622,2.39696002,-99.47383881,0.35354051,-0.27226841,-0.08078802,0.99999225,-0.00308353,0.00237815,0.00069767,0.01567892,0.00287308,0.01970182,2
262,1,2.87,0.05990035,-1.01072991,0.07054964,-0.42562145,1.11583805,-0.65528953,-46.50687027,1.02309263,-99.38614655,0.21547231,-0.25897619,-0.05631121,0.99999559,-0.00187923,0.00226091,0.00048716,0.00628213,-0.00861467,0.01492156,2
263,1,2.88,0.08008028,-0.99559921,0.06452312,-0.64129221,1.14801252,-0.58327883,-47.00379944,1.69541073,-100.0584641,0.209846,-0.25403714,-0.04400102,0.99999589,-0.00183039,0.00221759,0.00037992,-0.01473678,-0.01164772,0.00082895,2
264,1,2.89,0.09305722,-0.99207157,0.0736681,-0.08679941,1.04994833,-0.26241818,-45.07453918,1.40309846,-99.59075928,0.20966861,-0.25222418,-0.03329521,0.99999589,-0.00182906,0.0022016,0.00028653,-0.02782903,-0.00224416,-0.00111298,2
265,1,2.9,0.09007883,-0.9971686,0.08128193,-0.14037505,0.85783106,0.14609164,-45.24992752,1.66617942,-99.15229034,0.20881207,-0.2543357,-0.02477904,0.99999583,-0.00182174,0.00221989,0.00021219,-0.02447327,0.00498494,0.00430186,2
266,1,2.94,0.05999177,-1.01071572,0.07327862,0.3223747,-0.07459468,-0.4452098,-46.41917419,1.52002335,-99.59075928,0.27883032,-0.3452692,-0.0200408,0.99999249,-0.00243271,0.00301345,0.00016756,0.00480492,-0.00517771,0.01511482,2
267,1,2.95,0.07050712,-1.00317526,0.0699487,-0.05655428,0.18168052,-0.50211662,-46.71148682,0.73078048,-100.4384689,0.27840391,-0.34040383,-0.01780615,0.99999273,-0.00242906,0.00297095,0.00014817,-0.00614232,-0.00795889,0.00810457,2
268,1,2.96,0.08485116,-0.9976967,0.07085176,0.25731486,0.72377765,-0.22511265,-46.71148682,0.73078048,-100.4384689,0.28144646,-0.33871886,-0.01061368,0.99999261,-0.0024558,0.00295609,8.536e-05,-0.02077391,-0.0066959,0.00371978,2
269,1,2.97,0.08901506,-0.99536508,0.07439061,-0.06824104,0.8935734,-0.02612583,-46.21455765,1.37386727,-99.97076416,0.26361969,-0.07943784,-0.00364567,0.99999714,-0.00230049,0.0006933,3.022e-05,-0.02393145,-0.00293933,0.00194269,2
270,1,2.98,0.08196543,-0.99557036,0.07711313,-0.26253611,0.59573549,0.17198871,-46.65302658,-1.2277112,-99.3276825,0.26140088,-0.08161306,0.00232478,0.9999972,-0.00228116,0.00071216,-2.191e-05,-0.01350084,2e-05,0.00183866,2
271,1,2.99,0.07026601,-0.99841577,0.07995824,-0.58099687,0.24439405,0.2825883,-46.03916931,-0.23384975,-99.76615143,0.25575152,-0.08462133,0.00494404,0.99999726,-0.00223188,0.00073836,-4.479e-05,-0.00166737,0.00272144,0.00405918,2
272,1,3.0,0.065585,-1.00509107,0.08132713,-0.52108705,-0.20662273,0.196376,-46.74071884,0.58462435,-99.70768738,0.25040045,-0.08642082,0.00310161,0.99999732,-0.00218517,0.0007541,-2.871e-05,0.00343382,0.00370915,0.0104727,2
273,1,3.01,0.06734583,-1.00950372,0.07436116,-0.28026178,-0.79452038,0.08646588,-46.74071884,0.58462435,-99.70768738,0.24705338,-0.08667375,-0.00467004,0.99999744,-0.00215591,0.00075646,3.912e-05,0.00193417,-0.00348713,0.01448094,2
274,1,3.02,0.07381795,-1.00786328,0.06656332,-0.16750763,-1.19282186,0.03638541,-46.50687027,1.63694823,-99.59075928,0.11350592,0.00773914,-0.02675902,0.99999952,-0.00099054,-6.731e-05,0.00023358,-0.00425736,-0.01053725,0.01273303,2
275,1,3.03,0.08676486,-1.00015032,0.0693103,-0.00978716,-1.0696305,0.36838159,-46.1560936,1.31540489,-99.09383392,0.11265052,0.00486184,-0.03766546,0.99999952,-0.00098307,-4.21e-05,0.00032873,-0.01649405,-0.00547763,0.00615539,2
276,1,3.04,0.08779901,-0.99887055,0.07685141,0.47385374,-1.2728672,0.78970683,-46.47763824,2.36772871,-100.0584641,0.11644571,-0.00206365,-0.05124564,0.99999946,-0.00101617,1.846e-05,0.00044718,-0.01767024,0.00208439,0.0055007,2
277,1,3.05,0.07631284,-0.99891549,0.07897929,0.52800888,-1.53331947,1.29867959,-46.41917419,1.7831043,-100.1169205,0.12058203,-0.01386734,-0.06783418,0.99999928,-0.0010522,0.00012164,0.00059184,-0.00637019,0.00414229,0.00489819,2
278,1,3.06,0.0636105,-1.00167191,0.08018392,0.81620032,-1.75602102,1.49589419,-46.41917419,1.7831043,-100.1169205,0.12743358,-0.02747182,-0.08698749,0.99999911,-0.00111188,0.00024058,0.00075884,0.00626576,0.00503976,0.00684205,2
279,1,3.07,0.05613464,-1.00398612,0.07905489,0.54879642,-1.68932712,1.13710725,-46.53609848,2.16311026,-99.91230774,0.13491927,-0.18500187,-0.11983096,0.9999975,-0.0011757,0.00161567,0.00104382,0.01303175,0.00362996,0.00854274,2
280,1,3.08,0.05944649,-1.00503421,0.07778245,-0.64971215,-1.54647553,0.61519647,-46.44840622,1.60771704,-99.85384369,0.127386,-0.18998064,-0.13522047,0.99999732,-0.00110969,0.0016592,0.00117818,0.00774503,0.00228576,0.00972824,2
281,1,3.09,0.06771264,-1.00247526,0.08073757,-1.22613263,-1.13589966,0.30597985,-46.71148682,1.52002335,-100.5846252,0.11438753,-0.19218306,-0.1458904,0.99999732,-0.00099608,0.00167838,0.00127146,-0.00071742,0.00563931,0.00797286,2
282,1,3.1,0.07421513,-1.00339031,0.07899702,-0.15118507,-1.17546308,0.2790755,-46.79918289,1.49079216,-99.53230286,0.11210787,-0.1940871,-0.15768762,0.9999972,-0.00097599,0.00169507,0.00137442,-0.00718276,0.00394988,0.00921081,2
283,1,3.11,0.07397221,-1.00070572,0.07433504,0.67301583,-1.27020049,0.39043301,-46.79918289,1.49079216,-99.53230286,0.1179513,-0.19703375,-0.17108263,0.99999696,-0.00102675,0.00172098,0.0014912,-0.00719454,-0.00056126,0.00618533,2
284,1,3.12,0.06819902,-0.99924749,0.07481349,0.97334224,-0.95392668,0.39977109,-46.62379456,1.92926037,-100.0876923,0.12908331,-0.21328646,-0.1827136,0.99999636,-0.00112349,0.00186307,0.00159238,-0.00164363,-0.00012628,0.00436705,2
285,1,3.13,0.05990307,-1.00131452,0.07707937,1.27350473,-0.65509009,0.47766337,-46.33148193,1.8415668,-100.1461563,0.1413399,-0.21755829,-0.1904718,0.99999613,-0.00123026,0.0019006,0.00165983,0.00654765,0.00175518,0.00601033,2
286,1,3.14,0.05215416,-1.00301218,0.07926211,0.61013997,-0.55851936,0.41704819,-47.06226349,1.63694823,-100.5261612,0.14704062,-0.22129549,-0.19676612,0.99999595,-0.00127985,0.00193336,0.00171462,0.01433389,0.0036529,0.00731745,2
287,1,3.15,0.05479881,-1.00032187,0.0832536,-0.1452585,-0.23707606,0.29619688,-46.56533051,1.43232965,-100.3215408,0.14543536,-0.2240714,-0.19924507,0.99999577,-0.00126576,0.00195759,0.00173625,0.01147678,0.00783236,0.0051147,2
288,1,3.16,0.05704649,-1.00393558,0.08148511,0.24190766,0.34095529,0.1934019,-46.94533539,1.75387311,-99.61999512,0.14807162,-0.22625378,-0.19616921,0.99999577,-0.00128878,0.00197664,0.00170934,0.00943451,0.00578065,0.00873912,2
289,1,3.17,0.05780531,-1.00792682,0.08200818,-0.7077111,0.4342137,0.10023961,-46.94533539,1.75387311,-99.61999512,0.18829182,-0.33467215,-0.20022836,0.99999297,-0.00163804,0.00292342,0.00174251,0.00846195,0.00584533,0.01280397,2
290,1,3.18,0.05929519,-1.00099993,0.07480733,-1.08309245,0.42992029,-0.00086089,-46.59456253,2.13387895,-99.91230774,0.17776936,-0.3349908,-0.19519152,0.99999309,-0.00154634,0.00292598,0.00169882,0.00504334,-0.00124591,0.00550231,2
291,1,3.19,0.06224271,-1.00019097,0.0724378,0.48984456,0.62199908,0.04615866,-47.0914917,1.43232965,-100.2923126,0.18305981,-0.33592027,-0.18938313,0.99999309,-0.00159264,0.00293408,0.00164799,0.00202596,-0.00355572,0.00473164,2
292,1,3.2,0.06269783,-1.00261545,0.0709202,0.59709841,0.60581595,0.11394408,-46.94533539,1.28617358,-99.56153107,0.18938564,-0.33751652,-0.18386076,0.99999309,-0.00164797,0.00294803,0.00159961,0.00170679,-0.00535698,0.00706607,2
293,1,3.21,0.06136157,-1.00228941,0.0785882,0.37970614,0.79439896,0.13981739,-46.24378967,0.99386144,-99.82460785,0.19366564,-0.33951601,-0.17633106,0.99999303,-0.00168548,0.00296542,0.00153376,0.00302249,0.00222508,0.00720448,2
294,1,3.22,0.05990386,-1.00201583,0.08752811,0.08914456,1.15599132,0.05151168,-46.24378967,0.99386144,-99.82460785,0.31898811,-0.41185492,-0.17870946,0.99998856,-0.00277807,0.00359843,0.00154951,0.00416576,0.0105827,0.00748315,2
295,1,3.23,0.05516191,-1.00689602,0.08252566,0.03850623,0.94694763,-0.02497518,-46.21455765,1.90002918,-100.0584641,0.31995878,-0.41234729,-0.16929963,0.99998856,-0.00278682,0.00360251,0.00146735,0.00826932,0.0035862,0.01165888,2
296,1,3.24,0.05339866,-1.00843561,0.07758452,-0.94009978,0.39673388,0.11792395,-46.24378967,1.90002918,-99.91230774,0.31081939,-0.41383353,-0.16479266,0.99998885,-0.00270719,0.00361525,0.00142828,0.0100936,-0.00136074,0.01270928,2
297,1,3.25,0.05890033,-1.00113082,0.07704692,-0.22471792,0.43979314,0.1659745,-46.36071396,1.87079799,-99.47383881,0.30884299,-0.41583383,-0.16038711,0.99998885,-0.00269006,0.00363258,0.00138985,0.00405897,-0.00125038,0.00578603,2
298,1,3.26,0.06181671,-1.00196373,0.07040991,0.15437518,0.20095521,0.15432733,-46.18532562,1.95849168,-99.56153107,0.3105022,-0.41753069,-0.1586159,0.99998873,-0.00270457,0.00364737,0.0013743,0.00114117,-0.00797599,0.00633782,2
299,1,3.27,0.06965831,-0.99586564,0.0742013,-0.8088392,-0.0709001,0.11705165,-46.18532562,1.95849168,-99.56153107,0.29570714,-0.30361661,-0.16569707,0.99999213,-0.00257668,0.00265327,0.00143913,-0.00660653,-0.00363047,0.0010889,2
300,1,3.28,0.07430794,-0.99562091,0.07795544,-0.23933434,0.16156231,0.20776157,-46.30224991,2.01695418,-99.26921844,0.29340079,-0.30581588,-0.1640804,0.99999213,-0.00255657,0.0026724,0.00142503,-0.00976926,0.00030893,0.00143157,2
301,1,3.29,0.06816786,-1.00367045,0.07723657,0.38737509,0.22112559,0.06680933,-46.47763824,2.01695418,-99.41537476,0.29740191,-0.30665359,-0.16220215,0.99999207,-0.00259152,0.00267972,0.00140852,-0.00311438,-0.0010327,0.00896004,2
302,1,3.3,0.05437115,-1.00759184,0.07666129,0.19864851,-0.2150767,-0.41483432,-47.00379944,1.92926037,-99.41537476,0.29927,-0.30234894,-0.1641596,0.99999207,-0.00260783,0.00264222,0.00142566,0.01095896,-0.00194172,0.01185733,2
303,1,3.31,0.04987302,-1.01005447,0.07360403,0.02461991,-0.47749591,-0.71722364,-45.65916443,-1.08155513,-98.97690582,0.29924536,-0.29482725,-0.16836949,0.99999225,-0.00260761,0.00257667,0.00146257,0.01571452,-0.00517646,0.01377147,2
304,1,3.32,0.05063261,-1.01144302,0.07598285,0.327876,-0.23038013,-1.07371223,-45.65916443,-1.08155513,-98.97690582,0.28278825,-0.44879064,-0.16007772,0.99998838,-0.0024623,0.00391986,0.00138726,0.01451273,-0.00285312,0.01538187,2
305,1,3.33,0.05318587,-1.00797093,0.07549836,-0.16089292,0.25057471,-1.20802569,-46.36071396,1.72464192,-99.18152618,0.2813952,-0.43694076,-0.15654172,0.99998885,-0.0024504,0.00381636,0.00135671,0.00977327,-0.00284707,0.01208153,2
306,1,3.34,0.05759322,-1.00184083,0.07375669,-0.5072065,0.5589729,-0.81350952,-46.41917419,1.66617942,-99.3276825,0.27672157,-0.4292658,-0.14999862,0.99998927,-0.00240993,0.00374919,0.00129993,0.00510245,-0.00407014,0.00616234,2
307,1,3.35,0.06005576,-0.99842447,0.07827296,-0.81614912,0.74617541,-0.42372802,-46.38994217,1.90002918,-99.61999512,0.26906288,-0.42561927,-0.1416788,0.99998963,-0.0023434,0.00371711,0.00122765,0.00251826,0.00080447,0.00326111,2
308,1,3.36,0.05814177,-0.99799365,0.081635,-0.22440407,0.59653682,-0.24343053,-46.36071396,1.72464192,-99.85384369,0.26721776,-0.42365265,-0.13540143,0.99998975,-0.00232753,0.0036998,0.00117297,0.00445604,0.00425737,0.00294197,2
309,1,3.37,0.05437294,-1.0018965,0.08216829,-0.2399369,0.45743659,-0.35221142,-46.36071396,1.72464192,-99.85384369,0.28392699,-0.51904351,-0.13011545,0.99998611,-0.00247256,0.00453229,0.00112423,0.00810756,0.00445806,0.00660408,2
310,1,3.38,0.05552538,-1.00970304,0.07654591,-0.12449978,-0.14934541,-0.40996924,-46.79918289,2.10464764,-99.44460297,0.28260735,-0.51484108,-0.13119705,0.99998623,-0.00246104,0.00449563,0.00113381,0.00624728,-0.00193628,0.01405506,2
311,1,3.39,0.06011292,-1.01358068,0.07596698,0.02490296,-0.52967989,-0.64994913,-46.94533539,1.81233561,-99.53230286,0.28256899,-0.50794894,-0.13598154,0.99998647,-0.00246059,0.00443558,0.00117572,0.00204247,-0.00277806,0.01819023,2
312,1,3.42,0.07266804,-0.9892301,0.07327871,-0.53052276,-0.62328166,-0.3724013,-46.44840622,1.1692487,-99.41537476,0.24287249,-0.37425327,-0.14586847,0.99999171,-0.00211529,0.00326866,0.00126601,-0.0113367,-0.00352453,-0.00536333,2
313,1,3.43,0.07470557,-0.98259884,0.07435225,0.02876234,-1.08617067,-0.08227437,-46.44840622,1.1692487,-99.41537476,0.24248435,-0.37259781,-0.15662901,0.9999916,-0.00211162,0.0032544,0.00135995,-0.01227809,-0.00144084,-0.01175499,2
314,1,3.44,0.07057002,-0.99793285,0.08039092,0.30253118,-1.58707106,0.12213042,-47.14995575,1.2277112,-100.0584641,0.24449494,-0.37259537,-0.17271993,0.9999913,-0.0021287,0.00325471,0.00150032,-0.00704327,0.00343716,0.00365021,2
315,1,3.45,0.06154078,-1.01799214,0.08309594,0.40523854,-1.32543981,0.37313688,-46.91610718,1.25694239,-99.56153107,0.24768996,-0.37529355,-0.18647183,0.999991,-0.00215616,0.00327855,0.00162018,0.00334007,0.00464125,0.02317408,2
316,1,3.46,0.04704471,-1.02073526,0.0745915,0.33306041,-1.22190797,0.23910028,-45.71762466,0.05846244,-100.0292282,0.25024235,-0.37673646,-0.19903907,0.99999076,-0.00217805,0.00329142,0.00172975,0.01791337,-0.00410732,0.02427632,2
317,1,3.47,0.04853628,-1.00652957,0.0681303,-0.09592538,-1.17458045,0.00191581,-45.95147705,0.6138556,-99.76615143,0.15169796,-0.49232662,-0.19786453,0.99998844,-0.00131638,0.00429862,0.00172099,0.01489916,-0.00908692,0.00978069,2
318,1,3.48,0.06850404,-0.99253148,0.0709084,-0.14874771,-1.29693305,0.11891093,-45.95147705,0.6138556,-99.76615143,0.14941652,-0.4925375,-0.21075141,0.99998832,-0.00129599,0.00430057,0.00183353,-0.00749613,-0.00398388,-0.00254484,2
319,1,3.49,0.08451833,-0.99298626,0.07482748,0.52029574,-1.880054,0.26540303,-46.27301788,1.8415668,-99.21075439,0.15344653,-0.49376857,-0.23001553,0.9999879,-0.00133041,0.0043116,0.00200147,-0.02343811,-0.00013855,-0.00069083,2
320,1,3.5,0.08579357,-0.99697381,0.07338258,0.94067973,-2.60505581,0.37397358,-46.74071884,1.49079216,-99.29844666,0.16123354,-0.49553162,-0.25686643,0.99998719,-0.00139732,0.00432745,0.00223547,-0.02447358,-0.00198814,0.00326137,2
321,1,3.51,0.07737475,-1.00377369,0.07294349,0.53429216,-2.92236018,0.12322567,-46.59456253,1.69541073,-99.67845917,0.16476533,-0.49455518,-0.28640336,0.99998653,-0.00142704,0.00431937,0.00249311,-0.01560541,-0.00302489,0.00940786,2
322,1,3.52,0.06321334,-1.01078677,0.07929517,0.38857237,-2.54141903,-0.29413584,-46.68225479,1.28617358,-99.82460785,0.20551299,-0.54371023,-0.32312909,0.99998325,-0.00178003,0.00474978,0.00281128,-0.00113602,0.0026107,0.01585982,2
323,1,3.53,0.04516111,-1.01758516,0.07129256,0.86945742,-2.15316224,-0.71598125,-46.68225479,1.28617358,-99.82460785,0.21291812,-0.53492653,-0.34460518,0.99998295,-0.00184399,0.00467365,0.00299853,0.01672646,-0.00648325,0.02079153,2
324,1,3.54,0.04558835,-1.00757825,0.06664643,-0.05486478,-2.52855277,-1.06872392,-46.62379456,0.96463019,-99.94153595,0.21089292,-0.52234083,-0.36890456,0.99998283,-0.00182568,0.00456416,0.00321087,0.01577828,-0.01041177,0.0105266,2
325,1,3.55,0.06683221,-0.99540359,0.07216342,0.29729286,-2.02044845,-1.15652335,-46.8284111,1.69541073,-100.0,0.21268684,-0.50926572,-0.38833156,0.99998277,-0.00184095,0.00445042,0.00338054,-0.00600411,-0.00401351,0.00029377,2
326,1,3.56,0.07968678,-0.99375826,0.07676425,0.841263,-1.1800952,-1.07789016,-47.03303146,1.8415668,-100.1753845,0.22042289,-0.49761242,-0.39983717,0.99998266,-0.00190837,0.00434915,0.00348084,-0.01870812,0.00058913,-0.00011436,2
327,1,3.57,0.07363931,-1.00011051,0.08774112,0.83417565,-0.60672605,-1.10867286,-46.06840134,0.49693072,-100.0584641,0.38059521,-0.41767606,-0.43811947,0.99998063,-0.00330733,0.00365755,0.00381115,-0.01167812,0.01026636,0.0065789,2
328,1,3.58,0.05555801,-1.00630713,0.09278233,0.56698871,0.67597729,-1.05953574,-46.06840134,0.49693072,-100.0584641,0.3867223,-0.40764651,-0.43095481,0.99998093,-0.00336136,0.00357002,0.00374873,0.00789759,0.01273511,0.0118505,2
329,1,3.59,0.03386051,-1.00835109,0.08607273,0.19003664,2.25301361,-1.25823092,-46.76995087,0.84770536,-100.3507767,0.39009035,-0.39689246,-0.4076865,0.99998194,-0.00339181,0.0034756,0.00354589,0.02983002,0.00580362,0.01188327,2
330,1,3.6,0.03255433,-1.00370908,0.07979643,-0.94431293,2.90036917,-1.5891161,-46.44840622,1.25694239,-99.50306702,0.38256726,-0.38335657,-0.37692562,0.99998349,-0.00332748,0.00335635,0.00327808,0.03099517,-4.815e-05,0.00671718,2
331,1,3.61,0.04717123,-1.00063133,0.07957546,-0.89195985,3.12710547,-1.85795879,-46.50687027,1.2277112,-99.00613403,0.3757163,-0.36731899,-0.34373909,0.99998504,-0.00326909,0.00321526,0.00298914,0.0164659,8.56e-05,0.00465612,2
332,1,3.62,0.06889845,-0.99615043,0.07292046,-0.87466037,3.19685602,-1.90742302,-47.0914917,1.60771704,-99.18152618,0.27937129,-0.16731158,-0.31434479,0.99999225,-0.00243395,0.00146675,0.0027396,-0.00446896,-0.00572107,0.00122351,2
333,1,3.63,0.08925814,-0.99360281,0.06993008,-0.31472668,2.75148392,-1.77234244,-47.0914917,1.60771704,-99.18152618,0.27816355,-0.15177357,-0.285386,0.99999309,-0.00242412,0.00133051,0.00248723,-0.02228948,-0.00728183,-0.00012639,2
334,1,3.64,0.09573042,-0.99596256,0.07377721,-0.09632878,2.37155461,-1.54577661,-46.65302658,0.3215434,-99.47383881,0.27887198,-0.13820088,-0.26053622,0.99999374,-0.00243086,0.00121156,0.00227066,-0.02831504,-0.00361694,0.00295104,2
335,1,3.65,0.09202266,-1.00280321,0.08475819,0.19286162,2.13160753,-1.48758936,-45.48377609,0.4676995,-99.21075439,0.28230402,-0.12502132,-0.23831813,0.99999422,-0.00246129,0.00109613,0.00207702,-0.02385373,0.0067932,0.01029368,2
336,1,3.66,0.07849937,-1.0069356,0.08399932,0.50422621,1.71847129,-1.79919553,-46.74071884,1.7831043,-99.41537476,0.288587,-0.10841602,-0.22018903,0.99999458,-0.00251657,0.00095094,0.00191912,-0.00981789,0.00565075,0.01340643,2
337,1,3.67,0.06372924,-1.01349998,0.07853164,0.08871572,0.91491854,-2.51748872,-46.33148193,1.46156096,-99.47383881,0.24587652,-0.18763044,-0.20842291,0.99999475,-0.00214269,0.00164128,0.00181531,0.0052682,-0.00016776,0.01851057,2
338,1,3.68,0.06591791,-1.00779903,0.07316595,-0.61043179,1.16776681,-2.93535781,-46.41917419,-0.55539316,-99.70768738,0.24070321,-0.15926336,-0.19413251,0.99999541,-0.00209817,0.00139339,0.0016912,0.00177704,-0.00446396,0.01260156,2
339,1,3.69,0.07145034,-0.99739891,0.06903451,-0.29080811,1.51929986,-3.25353885,-46.41917419,-0.55539316,-99.70768738,0.23898368,-0.12799226,-0.17632334,0.99999607,-0.0020838,0.00112015,0.00153638,-0.00395538,-0.007766,0.00233913,2
340,1,3.7,0.08375864,-0.99179894,0.07168796,0.30104926,1.47414124,-3.32887983,-46.41917419,1.34463608,-99.91230774,0.24314991,-0.09593471,-0.15932016,0.99999654,-0.00212071,0.00084014,0.00138855,-0.01605903,-0.00474921,-0.00218247,2
341,1,3.74,0.05491697,-1.01136255,0.07327584,-0.06398948,3.00090981,-5.53611612,-46.24378967,1.34463608,-99.91230774,0.40966824,0.18625368,-0.0627171,0.99999213,-0.00357591,-0.0016234,0.00055312,0.01886698,-0.00753435,0.01540381,2
342,1,3.75,0.06625298,-1.00200951,0.06791404,-0.99739587,3.45971274,-6.15222311,-46.33148193,1.72464192,-100.1461563,0.40259597,0.24481757,-0.02272387,0.9999916,-0.00351372,-0.00213572,0.00020581,0.00786398,-0.01212265,0.00650341,2
343,1,3.76,0.08536809,-0.99315625,0.06343066,-1.20035684,4.20506001,-6.7633462,-46.30224991,1.75387311,-100.0292282,0.39412436,0.30888706,0.02529955,0.99999046,-0.00343877,-0.00269629,-0.00021151,-0.01075776,-0.01581207,-0.00129205,2
344,1,3.77,0.10460305,-0.99168009,0.05857059,-1.48868155,4.61925268,-7.36868668,-46.38994217,1.7831043,-100.4092331,0.16334519,0.74775016,0.03418197,0.99997771,-0.00142348,-0.00652572,-0.00028899,-0.02728858,-0.01941048,-0.00175439,2
345,1,3.78,0.11210817,-0.99595755,0.06351711,-1.09010422,4.5898056,-8.13391685,-46.41917419,1.54925454,-100.3800049,0.15678781,0.82539201,0.08672591,0.99997294,-0.00136274,-0.00720387,-0.00074695,-0.028318,-0.01176267,0.00343084,2
346,1,3.79,0.10876489,-1.00228572,0.07144525,-0.44108614,4.51102209,-8.74717426,-46.41917419,1.54925454,-100.3800049,0.15675551,0.90921676,0.13848647,0.99996692,-0.00135832,-0.00793597,-0.00119763,-0.02307216,-0.00426522,0.01008872,2
347,1,3.8,0.09290298,-1.00172567,0.07207562,0.01474021,4.1694026,-9.43781185,-46.24378967,2.01695418,-100.7892456,0.16108571,1.00018239,0.18705539,0.99995965,-0.00139143,-0.0087304,-0.00162003,-0.00575028,-0.00365893,0.00849535,2
348,1,3.81,0.08187321,-0.9969272,0.06875687,-0.61012894,2.82452798,-9.91492462,-45.98070526,-0.43846828,-100.2046204,0.15812512,1.09691846,0.2230452,0.99995136,-0.0013612,-0.00957493,-0.00193313,0.00655852,-0.00662952,0.00274059,2
349,1,3.82,0.08953261,-0.99171644,0.07602108,-1.19195473,2.10529041,-9.90232944,-46.09763336,0.935399,-100.0,0.20840468,1.22802126,0.2762157,0.99993807,-0.00179273,-0.01072063,-0.0023908,0.00043584,0.00087198,-0.00134661,2
350,1,3.83,0.10165633,-0.99594229,0.0781708,-0.43134454,2.91362858,-10.06869316,-45.54224014,1.25694239,-100.2923126,0.20746192,1.32619154,0.31316575,0.99992782,-0.00177869,-0.01157783,-0.00271174,-0.00920192,0.00201975,0.00390775,2
351,1,3.84,0.10502592,-1.01101482,0.07824621,0.2735444,3.87770033,-10.22891331,-45.54224014,1.25694239,-100.2923126,0.21451399,1.42522442,0.35934728,0.99991608,-0.00183283,-0.01244289,-0.00311236,-0.00979693,0.00091379,0.01918484,2
352,1,3.85,0.08791813,-1.01237309,0.08345143,-0.43227318,4.68657637,-10.71280098,-45.71762466,1.37386727,-100.2923126,0.21543682,1.52845931,0.41444457,0.9999029,-0.00183162,-0.01334461,-0.0035913,0.00915695,0.00592675,0.01976413,2
353,1,3.86,0.06832179,-0.99574643,0.07965339,-1.63111627,4.96865463,-11.48906994,-45.27915955,-1.2277112,-100.8184738,0.20484652,1.63921976,0.4737756,0.9998877,-0.00172828,-0.01431165,-0.00410846,0.02941655,0.00346188,0.00162986,2
354,1,3.87,0.06382659,-0.98282152,0.07084189,-2.20033073,4.73624039,-11.63167477,-45.13300323,1.2277112,-100.5261612,0.11751942,1.38820744,0.49469545,0.99991691,-0.00097317,-0.0121184,-0.00430427,0.03333602,-0.00381844,-0.01217,2
355,1,3.88,0.08157193,-0.981888,0.06008601,-1.54340649,4.77789021,-10.73561478,-45.36685181,1.25694239,-99.73691559,0.10740523,1.49169922,0.55130744,0.99990338,-0.00087457,-0.01302151,-0.00479843,0.01263211,-0.0133116,-0.01272325,2
356,1,3.89,0.11031536,-0.99490923,0.06128018,-1.70652378,5.92201376,-9.77554703,-44.9576149,1.25694239,-100.3800049,0.09681223,1.58477259,0.61869514,0.99988955,-0.00077009,-0.01383366,-0.0053869,-0.01343817,-0.0129275,0.00236808,2
357,1,3.9,0.1278182,-0.99870211,0.0687362,-3.32253289,6.40731812,-10.05683613,-44.9576149,1.05232382,-100.3800049,0.07074323,1.68031502,0.69221956,0.99987411,-0.0005287,-0.01466644,-0.00603101,-0.02897126,-0.00539584,0.00794819,2
358,1,3.91,0.12794077,-0.99007374,0.05876402,-2.31822038,5.36002827,-11.17541218,-45.2206955,1.31540489,-100.5261612,0.05382677,1.78781486,0.75540441,0.99985659,-0.00036682,-0.01560375,-0.00658397,-0.02795618,-0.01433373,-0.00129795,2
359,1,3.93,0.12836678,-0.98772436,0.05934494,-1.05875266,1.25769258,-12.58111191,-45.01607513,0.76001167,-100.0876923,-0.1653491,2.28264904,0.83538294,0.99977386,0.00158782,-0.01990748,-0.00731731,-0.02000422,-0.00970494,-0.00326314,2
360,1,3.94,0.13854475,-0.99921566,0.0687492,0.53005975,1.50187695,-12.29012394,-43.81759644,0.52616191,-100.496933,-0.15743586,2.40419769,0.85853809,0.99975073,0.00153072,-0.02096814,-0.00751925,-0.02716012,-0.00119466,0.00964738,2
361,1,3.95,0.14753744,-1.01249528,0.08054777,0.56187212,3.08322525,-11.955513,-43.81759644,0.52616191,-100.496933,-0.14742477,2.52130127,0.89721066,0.99972636,0.00145843,-0.02198996,-0.00785596,-0.03308043,0.00941137,0.02442877,2
362,1,3.96,0.14358974,-1.01096737,0.10543938,-2.98416233,4.88437796,-12.67548656,-44.78222656,0.40923706,-100.0,-0.17046461,2.64433479,0.95680207,0.99969757,0.00167979,-0.02306087,-0.00838166,-0.02703987,0.03448438,0.0245294,2
363,1,3.97,0.12615415,-0.9820556,0.10706989,-4.45487213,5.85918283,-14.42755508,-44.46068192,-0.02923122,-100.1169205,0.16399266,2.81485629,1.12954414,0.99964917,-0.0011885,-0.02457467,-0.00981884,-0.00919083,0.03725759,-0.00521792,2
364,1,3.98,0.10479249,-0.97270244,0.08973105,-1.03877532,5.39639139,-15.90621948,-44.0222168,0.64308679,-100.1169205,0.16154557,2.96939301,1.19600785,0.99960923,-0.00113878,-0.0259232,-0.01039691,0.01438265,0.01603422,-0.01712364,2
365,1,3.99,0.0924238,-0.97181714,0.07522501,-1.48364532,4.05376673,-16.55759621,-44.66530228,0.81847411,-100.496933,0.15327302,3.13143587,1.24990249,0.99956679,-0.00103896,-0.02733646,-0.01086661,0.02937553,0.00167768,-0.019773,2
366,1,4.0,0.11150823,-0.96437967,0.07111554,-3.17357779,4.4159832,-16.15091515,-44.66530228,0.81847411,-100.496933,0.12878637,3.28916788,1.30823541,0.99952269,-0.0007957,-0.02871039,-0.01137929,0.01259399,-0.00151554,-0.02598588,2
367,1,4.01,0.14730114,-0.97662359,0.06662443,-2.84097648,7.44260406,-15.24655342,-44.78222656,0.935399,-100.4384689,0.11154441,3.43564296,1.39577425,0.99947637,-0.00060777,-0.02998675,-0.01214547,-0.01965735,-0.00653614,-0.01148115,2
368,1,4.04,0.17428447,-0.97840029,0.06593832,-4.1742897,4.98186207,-20.96607018,-42.79450226,-0.20461853,-99.97076416,-0.00466745,4.57155609,1.62774205,0.99910361,0.00060721,-0.03987916,-0.01419457,-0.02710437,-0.00542038,-0.00655044,2
369,1,4.05,0.17346255,-0.98505336,0.06617375,-2.42252731,1.266922,-21.63474464,-42.79450226,-0.20461853,-99.97076416,-0.02441139,4.78642035,1.65774739,0.99902314,0.00081688,-0.04174979,-0.01446234,-0.02210895,-0.0052277,0.00032707,2
370,1,4.06,0.18974778,-0.99927455,0.07602291,-1.06720805,1.21229136,-20.53993797,-44.34375763,0.43846828,-100.7600098,-0.03080764,4.99040842,1.68544018,0.99894369,0.00090887,-0.0435271,-0.01470546,-0.03367534,0.00374405,0.01663233,2
371,1,4.07,0.20093212,-0.99083763,0.07580096,-2.97596812,4.66487741,-20.01809311,-43.61297989,-2.36772871,-101.0815506,-0.02044703,5.60695839,1.74802816,0.99868691,0.00092427,-0.048902,-0.0152443,-0.04016464,0.00420783,0.00947601,2
372,1,4.08,0.191973,-0.96708387,0.07309372,-5.58652401,4.98310661,-21.37047005,-43.67144012,0.43846828,-100.5261612,-0.06475342,5.81652689,1.8171767,0.99858588,0.00136883,-0.05072163,-0.01586543,-0.0238789,0.00347445,-0.01412126,2
373,1,4.09,0.17972867,-0.961797,0.07868876,-5.58041382,1.17949951,-23.44762421,-43.20374298,0.40923706,-101.1692505,-0.11507669,6.04957485,1.84959924,0.99847543,0.00185438,-0.05274488,-0.01617058,-0.00812977,0.01029134,-0.01943219,2
374,1,4.1,0.1609171,-0.96472633,0.06482591,-4.29979181,-2.78280926,-25.74785614,-43.20374298,0.40923706,-101.1692505,-0.15932767,6.30837822,1.84290433,0.99835378,0.00227297,-0.05499367,-0.01613379,0.01511094,-0.00292414,-0.01837012,2
375,1,4.11,0.15337786,-0.97698945,0.05967546,-2.96866679,-4.67868614,-25.75839043,-43.08681488,0.08769365,-100.9938583,-0.19391659,6.56859827,1.81611443,0.99822921,0.00259718,-0.05725637,-0.0159188,0.02800322,-0.00829481,-0.00656161,2
376,1,4.12,0.16641355,-0.98355609,0.07143651,-3.40887976,-4.52874756,-24.2272892,-42.26834106,-1.19848001,-100.7307816,-0.16981964,6.67455387,1.86841404,0.99816895,0.00242837,-0.05818159,-0.01636285,0.01926872,0.00331009,0.00216706,2
377,1,4.13,0.18780324,-0.99571031,0.07003149,-2.9773283,-2.37003756,-23.04418755,-42.4437294,-2.86465931,-100.3507767,-0.20066532,6.90609169,1.86281836,0.99804944,0.0027268,-0.06019406,-0.01633136,0.00105268,0.00082549,0.01592029,2
378,1,4.14,0.18433325,-1.02575254,0.07977577,-2.65484476,-2.55774951,-22.65566826,-42.12218475,0.0,-100.4384689,-0.22876014,7.13388252,1.8547281,0.99792814,0.00299911,-0.06217412,-0.01627764,0.01060908,0.00882005,0.04675664,2
379,1,4.15,0.14395094,-1.01223922,0.07089432,-3.66293907,-6.20087576,-23.04129982,-42.38526535,-2.30926633,-100.7015457,-0.27400649,7.36799717,1.81090784,0.99780381,0.00340128,-0.06420768,-0.01592341,0.05390802,0.00161175,0.03035617,2
380,1,4.16,0.11472056,-0.9921295,0.04421233,-2.56427932,-9.71583462,-22.64247894,-42.38526535,-2.30926633,-100.7015457,-0.31566277,7.60047245,1.73055565,0.99768096,0.00374919,-0.06622867,-0.01525066,0.08560038,-0.02276276,0.00690746,2
381,1,4.17,0.13109951,-0.98538548,0.03047044,-2.12181377,-10.18152809,-20.67363358,-42.88219833,-0.29231218,-100.5261612,-0.80089915,7.15441704,1.3244952,0.99795562,0.00769616,-0.06230718,-0.01197138,0.06969671,-0.03337605,0.00050552,2
382,1,4.18,0.18099406,-0.98540574,0.01773063,-2.77489448,-8.9919014,-18.6529808,-42.32680511,0.43846828,-100.1169205,-0.84365976,7.34590435,1.24711072,0.99785471,0.00804385,-0.0639757,-0.01133183,0.01475014,-0.03956046,0.00247627,2
383,1,4.19,0.22295608,-1.00036871,0.02544705,-4.24010658,-7.79259777,-18.70161057,-42.29757309,-0.70154923,-100.2338486,-0.89879119,7.53713942,1.18263936,0.99774861,0.00850427,-0.06564023,-0.01081315,-0.02275888,-0.03214873,0.02128522,2
384,1,4.2,0.21730666,-0.99986333,0.05271105,-10.31989574,-11.52780247,-21.24904251,-41.97602844,-3.27389646,-100.8184738,-1.02154756,7.75586939,1.08601964,0.99762028,0.00953468,-0.06754104,-0.01005796,-0.01344227,-0.00326901,0.02286604,2
385,1,4.21,0.20130154,-0.96509463,0.0647383,-11.564394,-15.45007133,-23.54594803,-41.97602844,-3.27389646,-100.8184738,-1.16491044,7.99942207,0.95147449,0.99747258,0.0107196,-0.06966121,-0.00899147,0.00424925,0.01372316,-0.01136783,2
386,1,4.22,0.19854109,-0.93871492,0.05215414,-3.05779576,-15.61150551,-23.49531174,-42.29757309,-0.76001167,-100.6430893,-1.26771748,8.16705799,0.77718323,0.99737203,0.01151729,-0.07112985,-0.00755228,0.00901112,0.00494327,-0.03812995,2
387,1,4.23,0.20236196,-0.96786261,0.03702655,3.69720626,-10.75494576,-22.55515099,-41.91756821,-0.52616191,-100.3215408,-1.25147748,8.39771366,0.67780161,0.99723428,0.01132453,-0.07314821,-0.00669827,0.01023928,-0.01159699,-0.00949875,2
388,1,4.24,0.19518442,-0.99061877,0.02566629,4.05984306,-3.99114227,-22.67274857,-42.06372452,-0.70154923,-100.1461563,-1.2172339,8.62612534,0.64641917,0.99709135,0.01101613,-0.07514085,-0.00642359,0.02285674,-0.02513606,0.01238835,2
389,1,4.25,0.17540556,-0.98265451,0.04090386,-0.64896667,-0.60442531,-23.96570587,-41.71294785,-0.29231218,-100.2338486,-1.22186518,8.86578369,0.65322578,0.99693096,0.01107108,-0.07722512,-0.00650717,0.04616113,-0.00961621,0.00480006,2
390,1,4.26,0.17170422,-0.9587701,0.04680241,-5.58667278,-0.22627713,-25.540411,-41.71294785,-0.29231218,-100.2338486,-1.27415276,9.1210537,0.6680091,0.99675018,0.01154694,-0.07944129,-0.0066947,0.05252877,-0.00135286,-0.01810542,2
391,1,4.27,0.1896629,-0.95440865,0.03448936,-4.96911669,-1.92117167,-26.47225952,-41.12832642,-1.7831043,-100.4384689,-1.50324345,9.07610703,0.54217994,0.99676317,0.01345094,-0.0790516,-0.00575405,0.03742345,-0.01164276,-0.02153448,2
392,1,4.28,0.21627721,-0.97205514,0.02490683,-2.31011534,-5.17374372,-27.13083458,-41.53756332,-1.02309263,-100.5553894,-1.53459382,9.34955883,0.50421619,0.99656957,0.01370535,-0.08143295,-0.00547646,0.01270796,-0.01951592,-0.00263542,2
393,1,4.29,0.22280481,-1.00133586,0.03531533,-3.61953115,-5.03272152,-27.02923203,-41.01139832,-1.40309846,-99.76615143,-1.5787189,9.62193966,0.46837562,0.99636918,0.01407059,-0.08380382,-0.00522795,0.01300177,-0.01069166,0.0285012,2
394,1,4.3,0.22290388,-0.98830599,0.08976404,-8.99627399,1.9758637,-25.95261765,-41.12832642,-1.87079799,-100.8184738,-1.65930259,9.88051128,0.50638109,0.99616545,0.01480622,-0.0860433,-0.00564905,0.01681271,0.04574972,0.02029513,2
395,1,4.31,0.20106383,-0.95022237,0.08701698,-5.24943686,6.95392513,-25.26195908,-41.12832642,-1.87079799,-100.8184738,-1.69073915,10.12998676,0.59154415,0.99596685,0.01515183,-0.08819904,-0.006444,0.04027473,0.0467458,-0.01853181,2
396,1,4.32,0.15642025,-0.95688373,0.05048577,2.10971546,6.95294714,-25.30051231,-40.42677689,-1.7831043,-100.3507767,-1.7716043,9.30745029,0.27321056,0.9965784,0.01560195,-0.08108685,-0.00363035,0.08475465,0.01003288,-0.01769329,2
397,1,4.33,0.16285439,-0.98605996,0.03533978,0.97705698,2.52502203,-24.05338287,-40.30984879,-2.01695418,-100.1753845,-1.75315952,9.54668522,0.30823633,0.99640805,0.01546929,-0.08316313,-0.00395328,0.07069305,-0.00619013,0.00904285,2
398,1,4.34,0.20609853,-0.98048955,0.05693398,-5.50854158,2.86368704,-20.91265678,-40.07600021,-1.95849168,-100.7600098,-1.79806995,9.75454903,0.34990656,0.99624777,0.01589317,-0.08496311,-0.0043761,0.03105787,0.01615901,0.00873303,2
399,1,4.35,0.27137196,-0.96543598,0.03947805,-5.92527723,4.81993389,-18.06991577,-39.43291473,-2.57234716,-100.7307816,-1.84257412,9.93325615,0.41032511,0.99610519,0.01632829,-0.08650635,-0.00495887,-0.03195454,0.00069576,-0.00236969,2
400,1,4.36,0.30859163,-0.98293179,0.03225161,-1.10883558,3.50358009,-18.29318047,-39.43291473,-2.57234716,-100.7307816,-1.84268212,10.11463928,0.45405635,0.99596483,0.01636626,-0.08807672,-0.0053639,-0.06485014,-0.00752461,0.01765523,2
401,1,4.37,0.30353743,-1.0267278,0.03115319,-1.22047353,-0.64844614,-20.93578529,-39.57907104,-3.069278,-100.5261612,-1.93540478,10.66165352,0.67783105,0.99550623,0.01736492,-0.09279192,-0.00745778,-0.05192111,-0.01149418,0.06168367,2
402,1,4.39,0.26756054,-1.01377237,0.01573658,-4.02265692,-4.81799412,-19.49352264,-39.57907104,-2.3384974,-100.9061661,-2.05091548,11.07505703,0.60728449,0.99515074,0.01832419,-0.09638648,-0.00700092,-0.0054213,-0.02307704,0.0474418,2
403,1,4.4,0.27321237,-1.00871491,0.0016474,-2.61850452,-5.91467285,-18.36816597,-39.40368271,-2.19234133,-100.496933,-2.09018755,11.26085186,0.55585706,0.99498957,0.01862694,-0.09800584,-0.006616,-0.00825733,-0.03612801,0.04243922,2
404,1,4.41,0.27929923,-0.97908515,0.03183445,-5.98359632,-6.83903694,-19.65666771,-39.2575264,-1.90002918,-101.5492554,-2.16508293,11.45988846,0.49767593,0.99480838,0.01923174,-0.09973934,-0.00620679,-0.0129589,-0.00287504,0.01626323,2
405,1,4.42,0.2545419,-0.9584837,0.07084277,-7.15839481,-9.09214687,-22.18687057,-39.2575264,-1.90002918,-101.5492554,-1.82171822,11.32988644,0.05654794,0.99498957,0.01586788,-0.09869058,-0.00206019,0.01268099,0.03717929,-0.00270049,2
406,1,4.43,0.19142495,-0.96168751,0.04800608,-5.11253548,-10.50981617,-23.01557922,-39.08213806,-1.81233561,-101.6661758,-1.89748311,11.56420231,-0.03729913,0.99477643,0.01644087,-0.10073702,-0.00134434,0.07517515,0.01002273,-0.00583856,2
407,1,4.44,0.15441418,-0.96385163,0.06180644,-6.4670229,-9.05030346,-21.04888725,-39.49137497,-1.95849168,-101.5784836,-1.98324323,11.77821445,-0.11649086,0.99457473,0.01711056,-0.10260548,-0.00076462,0.11615031,0.02491261,-0.00443871,2
408,1,4.45,0.18523386,-0.93499511,0.06860507,-7.01359892,-3.03049779,-17.00072098,-38.96521378,-2.4554224,-101.4907913,-2.0584271,11.94941521,-0.13590668,0.99440908,0.01774118,-0.10409372,-0.0006903,0.08662262,0.03528222,-0.0297874,2
409,1,4.46,0.25250354,-0.96047264,0.04934201,2.70246148,2.18976665,-14.89338017,-38.70213318,-2.4554224,-101.0523224,-2.02376127,12.09736633,-0.1099181,0.99427897,0.01746034,-0.10537378,-0.00090714,0.02385319,0.0143537,-0.00057205,2
410,1,4.47,0.32937178,-1.00199091,0.0279267,5.3888154,6.06070137,-14.16614437,-38.70213318,-2.4554224,-101.0523224,-2.24026465,12.84390259,0.197979,0.99353004,0.01961925,-0.11179453,-0.00390304,-0.04506321,-0.01002767,0.04563945,2
411,1,4.48,0.38513133,-0.98292953,-0.02859338,-5.53650045,6.42269182,-17.58154488,-38.46828461,-2.66004086,-101.1400147,-2.27320075,13.01761436,0.27364624,0.9933508,0.01997884,-0.11328622,-0.00462069,-0.09187136,-0.06164956,0.02892207,2
412,1,4.49,0.37745559,-0.93639338,-0.0092969,-13.35126019,1.47165775,-24.08718872,-38.7313652,-1.98772287,-101.3738632,-2.39678264,13.25825882,0.30612567,0.99308693,0.02108277,-0.11536097,-0.00506739,-0.08369228,-0.03739602,-0.01559957,2
413,1,4.5,0.31207269,-0.91101533,0.0406221,-12.42055798,-3.77910542,-28.12732124,-38.70213318,-4.82315111,-101.0815506,-2.52681661,13.54089546,0.28482321,0.99277556,0.02218797,-0.11780832,-0.00506698,-0.01539361,0.01642652,-0.04061601,2
414,1,4.51,0.2591691,-0.90586448,0.03292742,-8.00710678,-4.75335598,-27.50464249,-38.64366913,-2.07541656,-101.1984787,-2.6169374,13.81741142,0.24959478,0.99247193,0.02293117,-0.12020662,-0.00490852,0.0417744,0.01087765,-0.04875439,2
415,1,4.52,0.26387784,-0.90819961,0.02464058,-8.69229031,0.39776808,-25.51123238,-38.64366913,-2.07541656,-101.1984787,-2.67039919,13.8502636,0.19989845,0.9924286,0.02334175,-0.12049896,-0.00454076,0.04069541,0.00365411,-0.0457867,2
416,1,4.53,0.29590684,-0.90477633,0.02641644,-9.15705299,5.97016621,-25.4587326,-37.24057388,-2.36772871,-101.3154068,-2.73827124,14.10354614,0.27446127,0.9921425,0.02400679,-0.12267394,-0.00530965,0.00997296,0.00660527,-0.04642227,2
417,1,4.54,0.3158991,-0.91953349,0.03551762,-4.46445179,9.11879444,-26.4511776,-38.17597198,-2.04618526,-101.344635,-2.74962711,14.36585331,0.37819111,0.99185121,0.02421684,-0.12492233,-0.00627346,-0.00452993,0.01513168,-0.02855932,2
418,1,4.55,0.3185662,-0.9503417,0.03488195,-2.75858402,5.59602833,-28.9460659,-38.00058365,-2.54311609,-102.0169525,-2.75502753,14.65392876,0.44516239,0.99152857,0.02433864,-0.1274009,-0.00691774,-0.00036015,0.01217033,0.00343443,2
419,1,4.56,0.31795463,-0.95528352,0.00525201,-8.34036255,3.0821104,-30.46641922,-37.53288651,-2.51388478,-101.5200195,-2.82293081,14.95804596,0.49049681,0.99116898,0.02497941,-0.13001792,-0.00744885,0.00550626,-0.01701386,0.00752616,2
420,1,4.57,0.31655958,-0.95554501,0.03628428,-10.41830444,7.33235836,-30.31185722,-37.53288651,-2.51388478,-101.5200195,-2.5267632,15.06426239,0.46510899,0.99111068,0.02238986,-0.13096048,-0.00691295,0.01137231,0.01356496,0.01107358,2
421,1,4.58,0.30677515,-0.96526164,0.06274749,-9.57683563,6.87211037,-29.26264763,-37.56211472,-2.80619693,-101.841568,-2.5933876,15.35513306,0.55148154,0.9907558,0.0230693,-0.13345444,-0.00779144,0.02444123,0.03570116,0.02248558,2
422,1,4.59,0.31039378,-0.95804775,0.07271902,-11.26390648,2.21146917,-27.6047039,-37.24057388,-2.36772871,-102.1046448,-2.6925118,15.63084412,0.590101,0.9904083,0.02397595,-0.13582301,-0.00829512,0.02512955,0.04748219,0.01765152,2
423,1,4.6,0.34118706,-0.9141739,0.08630843,-18.18920708,1.41728306,-26.50885201,-36.04209137,-2.77696586,-101.7538757,-2.86225915,15.89612484,0.6245954,0.99005133,0.02548848,-0.13809532,-0.00884997,-0.00408352,0.06661368,-0.02149253,2
424,1,4.61,0.35079589,-0.88421673,0.08350371,-17.82164383,2.53454232,-27.52580261,-37.03595352,-2.39696002,-102.1046448,-3.02437139,16.17141342,0.66985804,0.9896754,0.02694868,-0.14045009,-0.00949719,-0.01121979,0.06881198,-0.04938865,2
425,1,4.62,0.33587125,-0.8894099,0.04655745,-11.03414345,4.56133318,-29.1807785,-37.03595352,-2.39696002,-102.1046448,-3.02187467,16.40102005,0.71046221,0.98938853,0.02698169,-0.14242354,-0.00989535,0.00835732,0.0331074,-0.04654687,2
426,1,4.63,0.33637708,-0.92862606,0.02532997,-6.15164185,3.94130969,-29.98441124,-36.83133698,-2.36772871,-101.344635,-3.06429887,16.70025826,0.76200277,0.9889977,0.02741916,-0.1449908,-0.01045967,0.01469276,0.00878784,-0.00779965,2
427,1,4.64,0.3798888,-0.95237929,0.05424073,-8.30455303,2.00309587,-28.03266144,-36.94826126,-2.63080978,-101.6661758,-3.13495541,16.98047066,0.79434025,0.98861927,0.02807685,-0.14739448,-0.01089184,-0.02207783,0.03677011,0.02246666,2
428,1,4.65,0.41668835,-0.95652461,0.07224144,-8.70826626,4.37659264,-25.26118851,-36.21747971,-2.39696002,-101.6954117,-3.20085144,17.2326107,0.85090196,0.98826987,0.0287251,-0.14954905,-0.0115229,-0.05405042,0.05557675,0.03186106,2
429,1,4.66,0.41312873,-0.97160816,0.06203754,-3.32734036,5.36094809,-25.97508049,-35.51593018,-2.42619109,-102.0169525,-3.21022296,17.49155617,0.91384619,0.98791957,0.02889632,-0.15176524,-0.01213783,-0.0452725,0.04474591,0.04722158,2
430,1,4.67,0.37805656,-0.99235636,0.0539088,-3.47670984,0.63364935,-26.97788811,-35.10669327,-2.01695418,-102.0754166,-2.87296796,17.47435379,0.87917566,0.98802662,0.02594215,-0.15165983,-0.01138864,-0.00562498,0.03372972,0.06578242,2
431,1,4.68,0.36809301,-0.96648222,0.02773273,-10.77637672,-3.0492754,-26.03718567,-35.10669327,-2.01695418,-102.0754166,-2.98675513,17.73571396,0.86101663,0.9876529,0.02690703,-0.15390588,-0.01143879,0.00321883,0.0063121,0.03754172,2
432,1,4.69,0.38824975,-0.9112792,0.00226536,-14.2832098,-3.61219335,-25.21824265,-35.36977386,-2.16311026,-101.9877243,-3.13732409,17.98907852,0.83867598,0.98727542,0.02818133,-0.15607961,-0.01150574,-0.01661809,-0.0127772,-0.01633826,2
433,1,4.7,0.41071042,-0.8879745,-0.00508984,-9.27385139,-3.0493474,-25.77181244,-35.01900101,-2.68927217,-102.5723496,-3.237077,18.24764061,0.81801754,0.98689699,0.02901848,-0.15830214,-0.01152402,-0.03643104,-0.01641875,-0.03699519,2
434,1,4.71,0.40000525,-0.92788053,-0.00458346,-1.52013206,-3.11525345,-25.781147,-34.98976898,-2.60157847,-102.0169525,-3.26173139,18.50597191,0.79067492,0.98653322,0.02919814,-0.16053121,-0.01138345,-0.01866653,-0.01811934,0.00346171,2
435,1,4.72,0.37848678,-0.9616015,0.03115515,-3.14031458,-6.10719776,-23.85484314,-34.6097641,-2.48465347,-102.3969574,-3.04675174,18.47985268,0.73833627,0.98662782,0.0272735,-0.16033983,-0.01062591,0.008323,0.01452552,0.03907426,2
436,1,4.73,0.38572285,-0.94374681,0.0300778,-8.315588,-5.87458515,-21.05661392,-34.6097641,-2.48465347,-102.3969574,-3.14915156,18.69179726,0.68675297,0.98630899,0.0280857,-0.16216755,-0.01037343,0.00024592,0.0128279,0.02176022,2
437,1,4.74,0.41368803,-0.8976894,0.01470365,-9.30218315,-3.71560431,-19.22271156,-34.28821945,-2.71850324,-102.5723496,-3.25286269,18.88498688,0.65782678,0.98601049,0.02893914,-0.16382806,-0.01031686,-0.02765494,0.00257675,-0.0220178,2
438,1,4.75,0.43091735,-0.89614064,0.0091076,-5.60288,-2.7506876,-20.14943695,-34.40514374,-2.30926633,-102.1046448,-3.31668019,19.0871067,0.63616639,0.98570508,0.02945853,-0.1655668,-0.01027045,-0.0417226,-0.00165731,-0.0215746,2
439,1,4.76,0.43711162,-0.91650999,0.00733277,-4.41102362,-2.83966351,-21.75318909,-34.69745636,-2.25080395,-101.9584885,-3.36926532,19.30520439,0.61270148,0.985376,0.02987766,-0.16744402,-0.01019806,-0.04299376,-0.00410014,0.00025689,2
440,1,4.77,0.43425065,-0.93084383,-0.00722258,-6.68051481,-3.99444103,-23.12765503,-34.25898743,-2.19234133,-102.0461807,-3.51612282,19.86633492,0.42588151,0.98451954,0.03085983,-0.17230457,-0.00895116,-0.03412776,-0.0183873,0.01513783,2
441,1,4.78,0.44829327,-0.92212868,0.01203511,-13.21601582,-3.65303445,-23.86127281,-34.25898743,-2.19234133,-102.0461807,-3.65833426,20.10588837,0.39943102,0.98411977,0.03203744,-0.17435849,-0.0090022,-0.04069166,0.00405278,0.01186081,2
442,1,4.79,0.44735709,-0.89432549,0.00757381,-14.96277332,-2.71742153,-24.1942234,-33.70359421,-2.74773455,-102.630806,-3.81376767,20.3487072,0.38353217,0.98370457,0.03334269,-0.17643569,-0.00917033,-0.03774605,0.00406421,-0.01457443,2
443,1,4.8,0.41758284,-0.87690693,0.02135199,-11.00540352,-1.40289259,-24.03757477,-32.47588348,-3.50774622,-102.7477341,-3.92521977,20.58966637,0.37803119,0.98329854,0.03428499,-0.17849649,-0.00936434,-0.00524059,0.02112555,-0.03137762,2
444,1,4.81,0.37579906,-0.87550461,0.00231888,-4.7338624,-1.76408899,-24.08110619,-33.84975052,-3.21543407,-102.8354263,-3.97752905,20.8307724,0.36364675,0.98290575,0.03470488,-0.1805651,-0.00939302,0.04019117,0.00331516,-0.03550657,2
445,1,4.82,0.38114521,-0.88726521,0.0093926,-4.90631247,-2.4963243,-23.6050396,-33.5574379,-2.60157847,-103.3615875,-3.89173341,20.88102341,0.40947741,0.98284823,0.03404002,-0.18098952,-0.00966531,0.03884408,0.00965873,-0.02171544,2
446,1,4.83,0.42417699,-0.87357467,0.01494284,-7.56373167,-2.45889807,-22.35533142,-33.5574379,-2.60157847,-103.3615875,-3.97481513,21.10503769,0.38977757,0.9824689,0.03471567,-0.18290949,-0.00969302,-0.00354664,0.01565107,-0.03140772,2
447,1,4.85,0.47029665,-0.89293677,-0.0257661,-2.28189373,-4.72465086,-23.60299492,-32.38819122,-3.44928384,-102.1046448,-4.07049942,21.56309128,0.31497213,0.9817059,0.03540113,-0.18685025,-0.00934188,-0.04107349,-0.02482616,-0.00890767,2
448,1,4.86,0.48047575,-0.90033633,-0.01378778,-9.94462109,-5.78637934,-24.50068283,-33.32358932,-2.57234716,-102.8061981,-4.19263172,21.80864525,0.26043922,0.98126912,0.03634854,-0.18896073,-0.00914992,-0.0467109,-0.01205952,0.00169391,2
449,1,4.87,0.4920918,-0.86996871,0.00052043,-15.66113853,-3.92416143,-24.64840508,-32.03741455,-2.98158431,-103.5369797,-4.32065916,22.7579422,-0.14443061,0.97965556,0.03670643,-0.1972037,-0.00620256,-0.05350555,0.00656889,-0.0237348,2
450,1,4.88,0.47061077,-0.85445309,-0.00821325,-12.78307438,-5.08978605,-24.38437653,-32.03741455,-2.98158431,-103.5369797,-4.46859455,23.00226593,-0.19101089,0.97918749,0.03787099,-0.19929908,-0.00614112,-0.02074381,0.00068351,-0.03601365,2
451,1,4.89,0.42283493,-0.87657732,-0.03297335,-8.21175003,-5.34887266,-24.79182816,-32.97281647,-2.92312193,-102.9231186,-4.57401514,23.25030708,-0.24455775,0.97872162,0.03865682,-0.20143031,-0.00595247,0.03227674,-0.02382217,-0.0173054,2
452,1,4.9,0.41772664,-0.89814699,-0.01538656,-8.24876308,-5.21020794,-24.89024544,-32.73896408,-2.48465347,-102.4846497,-4.67951679,23.49925995,-0.2971493,0.97824883,0.03944197,-0.20356855,-0.00577675,0.04296798,-0.00636849,0.00692045,2
453,1,4.91,0.4369933,-0.89138967,-0.01914101,-10.38334656,-2.40337801,-24.14822769,-32.18357086,-2.4554224,-102.8061981,-4.79192257,23.74109268,-0.31810457,0.97777951,0.04034052,-0.20563404,-0.0058851,0.02716124,-0.00797072,0.00311001,2
454,1,4.92,0.44094011,-0.89076084,-0.05891708,-7.14315414,-0.59248745,-24.93661308,-32.24203491,-2.30926633,-103.7415924,-5.32920122,23.65882874,-0.32914433,0.97772741,0.04491358,-0.20490672,-0.00672191,0.02557477,-0.04439062,0.00130261,2
455,1,4.93,0.45063233,-0.91062474,-0.02419933,-5.54475546,-1.68456924,-26.52839661,-31.3066349,-2.74773455,-103.8585205,-5.39251566,23.92406464,-0.34938291,0.97722733,0.04538826,-0.2071733,-0.00677045,0.01763238,-0.00472856,0.02491017,2
456,1,4.94,0.47664553,-0.90916502,-0.00832253,-8.40965366,-2.98628449,-26.76205635,-31.3066349,-2.74773455,-103.8585205,-5.49050808,24.19151306,-0.38217407,0.97670472,0.04613372,-0.20946063,-0.00677893,-0.00405938,0.0123871,0.02844445,2
457,1,4.95,0.51335835,-0.89057165,0.00223896,-11.10454082,-3.88696098,-26.29034233,-30.86816597,-3.94621444,-103.7415924,-5.61959791,24.4541626,-0.42328483,0.97617269,0.0471269,-0.21170758,-0.00677612,-0.03771826,0.02594141,0.01533404,2
458,1,4.96,0.51472861,-0.86456418,-0.03118769,-12.96935177,-5.97550964,-27.47729683,-31.59894753,-2.63080978,-103.5954361,-5.77828074,24.72813225,-0.48706105,0.97560233,0.04832521,-0.21405788,-0.00664593,-0.03681267,-0.0033287,-0.01070616,2
459,1,4.97,0.48540336,-0.8656128,-0.04616485,-11.49959946,-8.3378067,-28.80338478,-31.45279121,-2.04618526,-103.9462128,-6.11174917,24.96902275,-0.60391659,0.97501332,0.05091086,-0.21613954,-0.00638591,-0.00325323,-0.01534405,-0.0104899,2
460,1,4.98,0.46531546,-0.87326789,-0.04900533,-11.06157875,-7.39400387,-29.22179985,-30.92663002,-2.48465347,-103.8877487,-6.26157093,25.25930023,-0.68829495,0.97440159,0.05198152,-0.21863802,-0.00608893,0.02133734,-0.01445233,-0.00213433,2
461,1,4.99,0.45334309,-0.87522894,-0.04238993,-11.16535378,-6.59652901,-28.48249435,-30.92663002,-2.48465347,-103.8877487,-6.40878248,25.54230118,-0.76451242,0.97379684,0.05304143,-0.22107059,-0.00586004,0.03797602,-0.00590726,0.00184206,2
462,1,5.0,0.45225048,-0.86327243,-0.0570802,-9.27031136,-5.48071194,-27.29689789,-30.83893585,-2.89389062,-104.5893021,-6.53218412,25.81358337,-0.8302502,0.97321826,0.05391657,-0.2233993,-0.0056748,0.0424903,-0.01781723,-0.00889804,2
463,1,5.01,0.4811779,-0.87379754,-0.04429983,-6.49110603,-5.83064079,-27.20974159,-30.72201157,-2.22157264,-104.2092972,-6.63128853,26.08350754,-0.90268856,0.97264779,0.05456837,-0.22572009,-0.00538973,0.01867658,-0.00440388,0.00675268,2
464,1,5.02,0.52709121,-0.88642401,-0.03156004,-7.16340017,-5.16100502,-26.97246742,-30.54662323,-2.39696002,-104.1508331,-6.59488916,26.56346512,-0.93558621,0.9717164,0.05410651,-0.22980845,-0.00528115,-0.02115099,0.0080964,0.02601352,2
465,1,5.03,0.56561995,-0.88948703,-0.04776148,-9.3423996,-4.37011385,-26.52903366,-29.90353584,-2.25080395,-103.8585205,-6.71422386,26.82737541,-0.99002761,0.97113246,0.05495878,-0.2320656,-0.00519464,-0.05281115,-0.00853451,0.03388025,2
466,1,5.09,0.50592119,-0.84019101,-0.0378264,-4.36580181,-3.7925148,-24.46976662,-29.23121834,-2.04618526,-104.4139099,-7.19444323,28.28848267,-1.35216868,0.96788669,0.05795804,-0.2445832,-0.00391147,0.02610365,0.01125078,-0.00594091,2
467,1,5.1,0.51561248,-0.85032964,-0.03756041,-4.20172977,-2.69604588,-24.27505493,-29.69891739,-2.22157264,-103.7415924,-7.25699377,28.52981567,-1.3941772,0.9673422,0.05833919,-0.24663945,-0.00382564,0.02085411,0.01147946,0.00694591,2
468,1,5.11,0.53083849,-0.8529222,-0.00924143,-5.87581158,-5.00964975,-23.84567833,-28.93890572,-1.43232965,-104.3262177,-7.35007858,28.76570702,-1.4613179,0.96679008,0.05892242,-0.24866071,-0.00359356,0.00965342,0.04048231,0.01477103,2
469,1,5.12,0.56280667,-0.84226871,-0.02518873,-8.90941143,-6.41895676,-22.49056816,-28.96813774,-3.04004669,-104.1800613,-7.30356741,29.2746582,-1.58552885,0.96571058,0.05813021,-0.25301513,-0.00273386,-0.01849183,0.02616723,0.00789148,2
470,1,5.13,0.5890609,-0.83010721,-0.05772392,-9.69262028,-5.80338049,-21.51060867,-29.05583191,-2.80619693,-104.0923691,-7.43877506,29.48705101,-1.65801513,0.96517569,0.05905318,-0.25483766,-0.00254464,-0.0391294,-0.00583755,-0.0010979,2
471,1,5.14,0.59401298,-0.82886732,-0.07253736,-7.01937437,-6.55475855,-20.780056,-29.05583191,-2.80619693,-104.2385254,-7.55349016,29.6913414,-1.74143529,0.96466535,0.05977772,-0.25659785,-0.00221759,-0.04107595,-0.01887598,-0.00104318,2
472,1,5.15,0.59203225,-0.84383255,-0.0966164,-2.74340701,-6.76642656,-19.71317101,-29.14352417,-2.3384974,-104.2385254,-7.62883377,29.88434601,-1.83051157,0.96419734,0.06015776,-0.25826666,-0.00175163,-0.03518496,-0.04287403,0.01383439,2
473,1,5.16,0.59406853,-0.8563242,-0.06155759,-2.17371273,-8.4985466,-18.41454124,-28.7927494,-1.87079799,-104.6185303,-7.70995712,30.06317711,-1.93949246,0.96375495,0.06054209,-0.25982648,-0.00112567,-0.03338787,-0.00787441,0.03068516,2
474,1,5.17,0.5825212,-0.85641408,-0.06391725,-1.59626055,-11.9154377,-17.88707924,-28.58813095,-1.52002335,-105.1739273,-7.85901403,30.15611839,-2.08190727,0.96346736,0.06144407,-0.26068243,-0.00032347,-0.01954351,-0.00887395,0.03134461,2
475,1,5.18,0.56006712,-0.85335338,-0.04870107,-2.32648587,-15.01691723,-17.96085548,-28.7927494,-1.72464192,-104.969307,-7.98485422,30.32578087,-2.26674008,0.96301579,0.06202644,-0.26220742,0.00083708,0.00438864,0.00868342,0.02911405,2
476,1,5.19,0.54888839,-0.83262813,-0.05885849,-4.11164618,-12.46574211,-18.28607559,-28.44197655,-2.04618526,-103.975441,-8.11205482,30.50020981,-2.42170238,0.96254873,0.06268154,-0.26375759,0.00173592,0.01664231,0.00180176,0.00875785,2
477,1,5.2,0.55593765,-0.82066494,-0.09488234,-3.5588398,-9.17457581,-18.9305191,-28.44197655,-2.04618526,-103.975441,-8.21330547,30.68305016,-2.54028535,0.96207362,0.06319486,-0.26535869,0.00237939,0.01129848,-0.03182795,-0.00344897,2
478,1,5.21,0.55636269,-0.81864756,-0.10346124,-2.9812665,-6.43919373,-19.54366302,-28.20812607,-1.98772287,-104.530838,-8.29177952,30.87371254,-2.62871552,0.96159047,0.06358027,-0.26700824,0.00281402,0.01351347,-0.03919458,-0.00420324,2
479,1,5.22,0.56684726,-0.81975812,-0.09017986,-2.54304647,-7.18140888,-19.38396835,-28.44197655,-2.28003502,-105.1739273,-8.52441216,31.06112671,-2.81505775,0.96102208,0.06502694,-0.26869017,0.00370762,0.00604493,-0.02457418,0.00053033,2
480,1,5.23,0.59228241,-0.81804162,-0.0820931,-2.03163767,-8.61893559,-17.93568993,-28.06196976,-2.07541656,-104.9108429,-8.60907841,31.23358536,-2.92970943,0.9605698,0.06540083,-0.27020285,0.0043515,-0.01674434,-0.01367885,0.0032082,2
481,1,5.24,0.60674465,-0.81790298,-0.10548674,-1.58576524,-9.20593929,-16.29999352,-27.68196487,-2.10464764,-104.7939224,-8.69327927,31.38907051,-3.05054784,0.96015424,0.06575924,-0.27157712,0.00505713,-0.02888609,-0.03598359,0.00401964,2
482,1,5.26,0.58158338,-0.827326,-0.08955055,-0.28406677,-10.59902668,-15.39232445,-28.14966393,-2.39696002,-104.4431458,-8.86524487,31.67884445,-3.3208034,0.95936149,0.06643596,-0.2741659,0.00670592,0.00129908,-0.01862139,0.01581904,2
483,1,5.27,0.57787579,-0.83400643,-0.07720312,-0.31914157,-10.460042,-15.83670998,-27.79888916,-2.4554224,-105.4077759,-8.97183228,31.59777832,-3.41121244,0.95948446,0.06714723,-0.27354723,0.00726669,0.00686138,-0.00564582,0.02411555,2
484,1,5.28,0.57611394,-0.83057356,-0.07913332,-2.47743583,-10.77999306,-16.5759182,-27.91581345,-2.36772871,-104.472374,-9.07695103,31.75411797,-3.55164933,0.95904541,0.06762208,-0.27494383,0.00807624,0.00808337,-0.00563553,0.02052367,2
485,1,5.29,0.56675607,-0.81963199,-0.09039071,-4.93755341,-11.05084991,-17.88187981,-27.71119499,-1.81233561,-105.6416245,-9.20873547,31.92326736,-3.69521689,0.95855677,0.06830233,-0.27645198,0.00883459,0.01903008,-0.01451067,0.00994311,2
486,1,5.3,0.54852539,-0.80606937,-0.10653356,-6.54033947,-11.15531445,-19.18823242,-27.71119499,-1.81233561,-105.6416245,-9.35798931,32.10519409,-3.84085274,0.95802355,0.06911269,-0.27807033,0.00955359,0.03881758,-0.02779611,-0.00403551,2
487,1,5.31,0.54892224,-0.80418789,-0.09128693,-7.01095104,-10.70893097,-19.28935623,-28.06196976,-2.19234133,-104.7646866,-9.50952339,32.28828812,-3.98184109,0.95748246,0.06994747,-0.2796967,0.01022194,0.04109,-0.01050186,-0.00272025,2
488,1,5.32,0.56375152,-0.80634087,-0.08133448,-6.54645634,-8.23688793,-18.30257607,-27.74042702,-2.74773455,-104.9985352,-9.64733791,32.20703125,-4.03915834,0.95758671,0.0709995,-0.27906659,0.01042859,0.02818512,0.00115036,0.0025751,2
489,1,5.33,0.5810703,-0.81498879,-0.08192088,-4.70363188,-6.02734995,-16.66125488,-27.4481144,-2.57234716,-104.9400711,-9.74353886,32.36763382,-4.12515831,0.9571349,0.07151256,-0.2804684,0.01078469,0.01112669,0.00164014,0.01238954,2
490,1,5.34,0.59899712,-0.82511091,-0.07518905,-2.76262569,-4.40728664,-15.23260975,-27.62350082,-3.44928384,-104.8523789,-9.80947971,32.5152626,-4.19243145,0.95673275,0.07182282,-0.28174734,0.01106636,-0.0037783,0.00847822,0.02578761,2
491,1,5.4,0.61827385,-0.76554692,-0.09774923,-11.42814636,-6.52262831,-16.92251205,-27.0681076,-1.7831043,-105.2323837,-10.43342686,33.55266953,-4.76622391,0.9537397,0.07502585,-0.2908119,0.01342551,-0.01217719,-0.00298283,-0.02262634,2
492,1,5.41,0.61466038,-0.75199252,-0.10218231,-9.60774994,-7.28296852,-17.34480858,-27.0681076,-1.7831043,-105.2323837,-10.58990097,33.71825027,-4.86810923,0.95321387,0.07597245,-0.29227209,0.01373108,-0.00714251,-0.00437312,-0.03469089,2
493,1,5.42,0.61593491,-0.75434208,-0.11509342,-7.66110706,-6.84312916,-17.4472084,-26.77579689,-1.81233561,-105.0569992,-11.00336933,34.11046982,-5.13722515,0.9519226,0.07848296,-0.29575673,0.01455621,-0.00508798,-0.0147956,-0.03050488,2
494,1,5.43,0.61948854,-0.76487488,-0.10822298,-7.42668343,-5.74603271,-17.02812958,-26.83425903,-2.07541656,-105.4954681,-11.12973309,34.27362823,-5.22464705,0.95141411,0.07920467,-0.29718438,0.0148054,-0.00303123,-0.00452733,-0.01515325,2
495,1,5.44,0.61845261,-0.78001344,-0.10095432,-6.78268814,-4.4355669,-16.69081688,-26.68810272,-2.28003502,-105.6708527,-11.24043655,34.43479919,-5.29697084,0.950921,0.07983374,-0.29858309,0.01496816,0.00142543,0.00297876,0.00225158,2
496,1,5.45,0.63142473,-0.79774666,-0.09189806,-6.82284641,-2.87252426,-16.25253868,-26.80502701,-2.01695418,-105.0862274,-11.33989334,34.59345245,-5.35030651,0.95044225,0.08041809,-0.29994586,0.01500201,-0.00794247,0.01185182,0.02328448,2
497,1,5.46,0.65330303,-0.80163401,-0.08766644,-7.88911057,-2.25973439,-15.87598038,-26.80502701,-2.01695418,-105.0862274,-11.44492435,34.74919891,-5.39525414,0.94996589,0.08107047,-0.30127898,0.01495166,-0.02721401,0.01693355,0.03080686,2
498,1,5.47,0.65910727,-0.79698324,-0.09594018,-7.80237627,-2.27655768,-15.34100723,-25.81116676,-2.86465931,-105.027771,-11.37405586,35.00130844,-5.33682156,0.94937778,0.08047406,-0.30331191,0.01441523,-0.03082959,0.00951649,0.02788688,2
499,1,5.48,0.65324765,-0.78183204,-0.07762501,-6.80053329,-3.63763833,-15.31210518,-26.36655998,-4.38468266,-105.4954681,-11.47926521,35.14955521,-5.39880991,0.94891399,0.08108483,-0.30459315,0.01450878,-0.02271738,0.02809426,0.01587433,2
500,1,5.49,0.636994,-0.76640993,-0.07718024,-4.43807507,-3.57534981,-15.27583981,-25.89885902,-1.8415668,-105.4954681,-11.56191444,35.29711151,-5.46237516,0.94846594,0.08150285,-0.30586663,0.01467348,-0.00547228,0.03064125,0.00113974,2
501,1,5.5,0.62772501,-0.76246208,-0.09681218,-4.02132702,-2.70195222,-14.93555164,-25.95732307,-1.72464192,-105.5539322,-11.63391209,35.44229126,-5.5155077,0.94803119,0.08186018,-0.30711141,0.01478043,0.00548798,0.0120863,-0.0031962,2
502,1,5.51,0.63450068,-0.75986058,-0.11056705,-4.93980646,-2.48717356,-14.47094154,-25.95732307,-1.72464192,-105.5539322,-11.71284771,35.58320999,-5.56483603,0.94760138,0.08228622,-0.30831885,0.01483948,0.00050086,-0.00068921,-0.00468202,2
503,1,5.52,0.65109199,-0.761886,-0.10615211,-6.28354645,-3.87568235,-14.37336159,-25.81116676,-2.36772871,-105.3200836,-11.84680367,35.85361862,-5.66989374,0.94678342,0.08292608,-0.31063992,0.01508062,-0.01343922,0.00461326,0.00082003,2
504,1,5.53,0.66129857,-0.76857227,-0.12835887,-7.1917038,-4.42525148,-14.02339172,-25.78193474,-1.37386727,-105.4662399,-11.96273041,35.98765945,-5.74119139,0.94633716,0.08359759,-0.31181058,0.01522159,-0.01994446,-0.01663106,0.00931684,2
505,1,5.54,0.65749866,-0.77089781,-0.13932309,-7.39553928,-5.41832924,-13.74695015,-25.51885414,-2.22157264,-105.5539322,-12.08857918,36.11752701,-5.82445526,0.94589114,0.08431892,-0.31295693,0.01543564,-0.01419426,-0.02633526,0.01224472,2
506,1,5.55,0.63844436,-0.77246362,-0.15231897,-7.06990433,-6.97818804,-14.0142889,-26.1327095,-2.77696586,-105.8462448,-12.22442436,36.24767303,-5.92806292,0.94543231,0.08506417,-0.3141222,0.01578683,0.00668224,-0.03786686,0.01322584,2
507,1,5.56,0.62170017,-0.77601868,-0.15293328,-7.52649689,-7.64374638,-14.10446453,-26.1327095,-2.77696586,-105.8462448,-12.37048626,36.37763596,-6.04016209,0.9449628,0.08586735,-0.31529427,0.01617671,0.02546619,-0.03706697,0.01729099,2
508,1,5.57,0.6186015,-0.77816844,-0.13857871,-7.88002491,-6.51825714,-14.26802635,-25.78193474,-1.05232382,-105.875473,-12.64362812,36.08531952,-6.1938386,0.94550675,0.08791396,-0.31304827,0.01700128,0.02912634,-0.0205172,0.02104569,2
509,1,5.58,0.62203652,-0.77527976,-0.13185233,-7.1769371,-4.00771475,-14.4060297,-26.01578522,-2.07541656,-106.3431702,-12.75822544,36.22294998,-6.2632637,0.94504511,0.08856646,-0.31424963,0.01711408,0.02295726,-0.01010457,0.01773884,2
510,1,5.59,0.63039243,-0.77503055,-0.13884248,-6.61867905,-2.92400479,-14.23207474,-25.57731628,-0.78924292,-105.9047089,-12.85916805,36.36029053,-6.32003021,0.94459498,0.08913908,-0.31543654,0.01715759,0.01651615,-0.01594309,0.01928352,2
511,1,5.6,0.64674044,-0.76776677,-0.15961023,-7.72133112,-2.53806138,-13.24083233,-25.10961723,-1.63694823,-106.1093216,-12.96675777,36.48851013,-6.36965227,0.9441632,0.08979122,-0.3165437,0.01713129,0.00145563,-0.03501147,0.0133519,2
512,1,5.61,0.66679937,-0.75094563,-0.16418859,-8.72061348,-3.05412126,-12.68136311,-25.10961723,-1.63694823,-106.1093216,-13.0876503,36.61049652,-6.42409229,0.94373524,0.09054259,-0.31760529,0.01711223,-0.01801244,-0.03705188,-0.00069712,2
513,1,5.62,0.66968793,-0.73936182,-0.17310552,-10.28734112,-2.13366342,-13.15462303,-25.54808426,-1.14001751,-106.1385574,-13.81839371,36.93726349,-6.75172329,0.94221944,0.09538389,-0.320658,0.01740549,-0.01929597,-0.04175019,-0.00999682,2
514,1,5.63,0.65215707,-0.72928882,-0.16989286,-9.84571743,-1.31113935,-13.94078445,-24.52499199,-1.37386727,-106.2262497,-13.93925571,37.07410431,-6.78900528,0.94174534,0.09616081,-0.32182693,0.01721434,0.00143707,-0.03069508,-0.01626531,2
515,1,5.64,0.63602126,-0.73488605,-0.15868007,-10.11006927,-2.6166079,-14.93813229,-25.08038521,-0.58462435,-106.1677856,-14.07483196,37.21852112,-6.84474707,0.94123363,0.09699851,-0.323075,0.01712172,0.01996526,-0.01855026,-0.0091229,2
